time,seconds_elapsed,z,y,x
1711545069696592100,0.125592041015625,0,0,0
1711545069715474400,0.144474365234375,-0.0730290412902832,0.028043270111083984,-0.004900053143501282
1711545069734356700,0.163356689453125,-0.11395406723022461,0.03842639923095703,0.02859540283679962
1711545069753239000,0.182239013671875,-0.013690948486328125,0.08898401260375977,0.037609606981277466
1711545069772121600,0.20112158203125,-0.009623527526855469,0.05411672592163086,0.07324466109275818
1711545069791004000,0.22000390625,-0.010317802429199219,-0.0089874267578125,0.16460013389587402
1711545069809886200,0.23888623046875,-0.09441709518432617,-0.07877635955810547,0.09775879979133606
1711545069828768500,0.2577685546875,-0.088775634765625,-0.04325151443481445,-0.030131608247756958
1711545069847650800,0.27665087890625,-0.14125537872314453,-0.00826406478881836,-0.11895501613616943
1711545069866533400,0.295533447265625,-0.04795074462890625,-0.026663780212402344,-0.1346435695886612
1711545069885415700,0.314415771484375,-0.04005908966064453,-0.09798622131347656,-0.12970025837421417
1711545069904298000,0.333298095703125,-0.0382695198059082,-0.0962672233581543,-0.1786559522151947
1711545069923180300,0.35218017578125,0.06191825866699219,-0.06008148193359375,-0.10523463785648346
1711545069942062600,0.3710625,0.013485431671142578,-0.07217216491699219,-0.0253494530916214
1711545069960945200,0.389945068359375,0.048018455505371094,-0.034182071685791016,-0.044975072145462036
1711545069979827500,0.408827392578125,0.16183233261108398,-0.03340911865234375,-0.01759093999862671
1711545069998709800,0.427709716796875,0.0741281509399414,-0.02972126007080078,0.0708630383014679
1711545070017592000,0.446592041015625,-0.20253419876098633,0.052837371826171875,0.0226137638092041
1711545070036474600,0.465474609375,-0.25016260147094727,0.12142610549926758,-0.09907424449920654
1711545070055357000,0.48435693359375,-0.03258037567138672,0.07832098007202148,-0.04003332555294037
1711545070074239200,0.5032392578125,0.2512645721435547,0.009510040283203125,0.14329344034194946
1711545070093121500,0.52212158203125,0.2275710105895996,-0.029352664947509766,0.21414242684841156
1711545070112003800,0.54100390625,-0.023977279663085938,-0.018755435943603516,0.13124790787696838
1711545070130886400,0.559886474609375,-0.11907482147216797,-0.0026178359985351562,0.11575527489185333
1711545070149768700,0.578768798828125,-0.49855899810791016,0.18211984634399414,0.11720871925354004
1711545070168651000,0.597651123046875,-0.4327225685119629,0.3332538604736328,0.1407494693994522
1711545070187533300,0.616533203125,-0.40254735946655273,0.29091596603393555,0.15860112011432648
1711545070206416000,0.635415771484375,-0.24917984008789062,0.2199869155883789,0.1116776317358017
1711545070225298200,0.654298095703125,-0.09129142761230469,0.06546401977539062,-0.09762749075889587
1711545070244180500,0.673180419921875,-0.14418792724609375,-0.07450103759765625,-0.2703090012073517
1711545070263062800,0.692062744140625,-0.25933408737182617,-0.1524195671081543,-0.23907798528671265
1711545070281945300,0.7109453125,0.1943955421447754,-0.20409345626831055,-0.1051860898733139
1711545070300827600,0.72982763671875,0.6519660949707031,-0.4006690979003906,0.19237977266311646
1711545070319710000,0.7487099609375,0.5684504508972168,-0.30388307571411133,0.13520586490631104
1711545070338592300,0.76759228515625,0.2381601333618164,-0.1868438720703125,-0.09336990118026733
1711545070357474800,0.786474853515625,0.24373292922973633,-0.050867557525634766,-0.12272864580154419
1711545070376357000,0.805357177734375,0.23686647415161133,-0.09123992919921875,-0.11236409842967987
1711545070395239400,0.824239501953125,0.0769796371459961,-0.05762672424316406,-0.006682921666651964
1711545070414121700,0.843121826171875,-0.17847442626953125,0.1724538803100586,0.32205694913864136
1711545070433004300,0.86200439453125,-0.14836597442626953,0.22360801696777344,0.3650997579097748
1711545070451886600,0.880886474609375,-0.2553572654724121,-0.008223533630371094,0.10127836465835571
1711545070470769000,0.899768798828125,-0.02371072769165039,-0.1711134910583496,-0.11570664495229721
1711545070489651500,0.9186513671875,0.0384364128112793,-0.03960418701171875,0.055848170071840286
1711545070508533800,0.93753369140625,0.028075218200683594,0.019876956939697266,0.263998806476593
1711545070527416000,0.956416015625,-0.10329675674438477,-0.05502033233642578,-0.011521637439727783
1711545070546298400,0.97529833984375,-0.05275154113769531,-0.23118305206298828,-0.17383918166160583
1711545070565181000,0.994180908203125,0.10105323791503906,-0.10522031784057617,-0.2007821798324585
1711545070584063200,1.013063232421875,0.23681068420410156,-0.06404447555541992,-0.09105783700942993
1711545070602945500,1.031945556640625,0.1218729019165039,0.03748369216918945,0.10885098576545715
1711545070621828000,1.050828125,-0.17110967636108398,0.09530067443847656,0.03974124789237976
1711545070640710400,1.06971044921875,-0.03574037551879883,-0.06477928161621094,-0.08042490482330322
1711545070659592700,1.0885927734375,-0.021112918853759766,-0.02331686019897461,0.17269855737686157
1711545070678475300,1.107475341796875,0.011797904968261719,0.06264686584472656,-0.057213425636291504
1711545070697357600,1.126357666015625,0.13867902755737305,-0.12575769424438477,-0.09396761655807495
1711545070716240000,1.145239990234375,-0.266329288482666,0.053956031799316406,-0.1323738694190979
1711545070735122200,1.1641220703125,-0.5320916175842285,0.13464069366455078,0.2794221043586731
1711545070754004700,1.183004638671875,-0.20259428024291992,0.13608741760253906,0.23975712060928345
1711545070772887000,1.201886962890625,0.05575847625732422,0.02028942108154297,0.11833345890045166
1711545070791769300,1.220769287109375,0.09016752243041992,-0.0056972503662109375,-0.011113762855529785
1711545070810652000,1.23965185546875,-0.018845081329345703,-0.03208446502685547,0.06893819570541382
1711545070829534200,1.2585341796875,-0.4125046730041504,0.11054277420043945,0.2745024561882019
1711545070848416500,1.27741650390625,-0.36776018142700195,0.016849994659423828,0.06744688749313354
1711545070867298800,1.296298828125,0.24377012252807617,-0.03849220275878906,0.051567673683166504
1711545070886181400,1.315181396484375,0.345334529876709,0.02653026580810547,0.10086530447006226
1711545070905063700,1.334063720703125,0.31059694290161133,0.03073596954345703,-0.08901101350784302
1711545070923946200,1.3529462890625,0.13570308685302734,-0.05746746063232422,0.13557374477386475
1711545070942828500,1.37182861328125,0.31533384323120117,-0.06801271438598633,0.010956168174743652
1711545070961710800,1.3907109375,0.16031265258789062,-0.0799245834350586,0.10209178924560547
1711545070980593400,1.409593505859375,0.019150257110595703,0.05918264389038086,-0.011611878871917725
1711545070999475700,1.428475830078125,-0.24650812149047852,0.07861852645874023,0.014787733554840088
1711545071018358000,1.44735791015625,-0.2819037437438965,-0.0059375762939453125,-0.11844843626022339
1711545071037240300,1.466240234375,-0.3964681625366211,-0.04097557067871094,-0.22966456413269043
1711545071056123000,1.485122802734375,-0.1629352569580078,0.055251121520996094,0.06125080585479736
1711545071075005200,1.504005126953125,-0.046341896057128906,0.0023946762084960938,0.05533576011657715
1711545071093887700,1.5228876953125,0.10521316528320312,-0.04644155502319336,-0.046486735343933105
1711545071112770000,1.54177001953125,0.1969776153564453,-0.030195236206054688,0.0012556910514831543
1711545071131652400,1.56065234375,0.3461594581604004,-0.04472637176513672,0.14454734325408936
1711545071150535000,1.579534912109375,0.1753835678100586,0.027653217315673828,0.09350889921188354
1711545071169417200,1.598417236328125,0.1773991584777832,-0.07604265213012695,-0.10080689191818237
1711545071188299500,1.617299560546875,-0.015733718872070312,-0.027537822723388672,-0.0789872407913208
1711545071207182000,1.63618212890625,-0.22463130950927734,0.07161426544189453,0.08733350038528442
1711545071226064400,1.655064453125,-0.18970203399658203,-0.0007581710815429688,-0.01598203182220459
1711545071244946700,1.67394677734375,-0.028471946716308594,-0.005339622497558594,0.046521008014678955
1711545071263829200,1.692829345703125,-0.013460159301757812,-0.09698247909545898,0.0255010724067688
1711545071282711600,1.711711669921875,-0.23212718963623047,0.14355230331420898,0.2109432816505432
1711545071301594000,1.730593994140625,-0.11280965805053711,0.3052864074707031,0.30287498235702515
1711545071320476400,1.749476318359375,-0.33023548126220703,0.02702188491821289,-0.0656583309173584
1711545071339358700,1.768358642578125,-0.5665030479431152,-0.2015671730041504,-0.39200252294540405
1711545071358241300,1.7872412109375,-0.9215478897094727,-0.3593020439147949,-0.49440276622772217
1711545071377123600,1.80612353515625,-0.6649651527404785,-0.5324845314025879,-0.8980740308761597
1711545071396006100,1.825006103515625,0.6529226303100586,-0.5477199554443359,-1.1550424098968506
1711545071414888400,1.843888427734375,1.4336304664611816,-0.3428688049316406,-0.12895716726779938
1711545071433770800,1.862770751953125,1.3047757148742676,-0.04334735870361328,0.5246328115463257
1711545071452653300,1.8816533203125,0.729799747467041,0.12520265579223633,0.6657028794288635
1711545071471535600,1.90053564453125,-0.038249969482421875,0.43202781677246094,0.7772159576416016
1711545071490418200,1.919418212890625,-0.17332744598388672,0.5903019905090332,0.5470913648605347
1711545071509300500,1.938300537109375,-0.13366937637329102,0.4534263610839844,0.2827075719833374
1711545071528182800,1.957182861328125,0.07495784759521484,0.12735891342163086,0.07627415657043457
1711545071547065300,1.9760654296875,0.3249950408935547,-0.019861698150634766,-0.20658275485038757
1711545071565947600,1.99494775390625,0.46668577194213867,-0.14091777801513672,-0.10310700535774231
1711545071584830200,2.013830322265625,0.1501302719116211,-0.1296234130859375,0.1865401268005371
1711545071603712500,2.03271240234375,0.020221710205078125,-0.023458480834960938,0.4422292709350586
1711545071622594800,2.0515947265625,0.21691036224365234,0.07853078842163086,0.5732797384262085
1711545071641477400,2.070477294921875,0.3944830894470215,0.19971609115600586,0.7033630609512329
1711545071660359700,2.089359619140625,0.25101709365844727,0.12346029281616211,0.7248884439468384
1711545071679242200,2.1082421875,-0.08406686782836914,0.0473179817199707,0.41178369522094727
1711545071698124500,2.12712451171875,-0.3844752311706543,-0.017426013946533203,-0.0375514030456543
1711545071717006800,2.1460068359375,-0.8110098838806152,0.015392780303955078,-0.23030677437782288
1711545071735889400,2.164889404296875,-1.0093927383422852,0.11108207702636719,-0.10078060626983643
1711545071754771700,2.183771728515625,-0.5997281074523926,0.14952468872070312,-0.05511397123336792
1711545071773654300,2.202654296875,-0.13269710540771484,0.18716764450073242,0.12993580102920532
1711545071792536600,2.22153662109375,0.5337343215942383,0.14403915405273438,0.30070948600769043
1711545071811419000,2.2404189453125,0.880427360534668,-0.016551494598388672,0.44457364082336426
1711545071830301400,2.259301513671875,0.49611616134643555,-0.11971378326416016,0.5068067312240601
1711545071849183700,2.278183837890625,-0.013034343719482422,-0.015871047973632812,0.2223207950592041
1711545071868066300,2.29706640625,-0.3095827102661133,0.05346250534057617,-0.0630115270614624
1711545071886948600,2.315948486328125,-0.4252743721008301,0.03330516815185547,-0.10589408874511719
1711545071905831200,2.3348310546875,-0.47926855087280273,-0.010767936706542969,0.05328476428985596
1711545071924713500,2.35371337890625,-0.2020878791809082,-0.020139217376708984,0.14959174394607544
1711545071943596000,2.372595947265625,-0.06267499923706055,-0.011972427368164062,0.2423262596130371
1711545071962478300,2.391478271484375,-0.11987161636352539,-0.000583648681640625,0.16126978397369385
1711545071981360600,2.410360595703125,-0.1451129913330078,0.06439781188964844,0.10675203800201416
1711545072000243200,2.4292431640625,-0.17770624160766602,0.14728593826293945,0.06974321603775024
1711545072019125500,2.44812548828125,-0.09409427642822266,0.12531185150146484,0.17742997407913208
1711545072038008000,2.467008056640625,0.14487028121948242,0.0572199821472168,0.22854876518249512
1711545072056890400,2.485890380859375,0.24024629592895508,-0.013890743255615234,0.32543492317199707
1711545072075773000,2.50477294921875,0.26772117614746094,-0.006043434143066406,0.3681456446647644
1711545072094655200,2.5236552734375,-0.10541009902954102,0.013119220733642578,0.3713821768760681
1711545072113537800,2.542537841796875,-0.2081918716430664,0.10934829711914062,0.17146801948547363
1711545072132420000,2.561420166015625,-0.32088661193847656,0.05582618713378906,0.1297703981399536
1711545072151302700,2.580302734375,-0.45752525329589844,0.0500645637512207,-0.03386053442955017
1711545072170185000,2.59918505859375,-1.2126197814941406,0.24613237380981445,-0.009120732545852661
1711545072189067300,2.6180673828125,-0.831977367401123,0.47562456130981445,0.1092367172241211
1711545072207949800,2.63694970703125,0.24367046356201172,0.40285348892211914,0.031833529472351074
1711545072226832100,2.65583203125,0.22875738143920898,-0.08745670318603516,0.36385685205459595
1711545072245714700,2.674714599609375,-0.6633729934692383,-0.5161523818969727,-0.19826234877109528
1711545072264597000,2.693596923828125,0.15087175369262695,-0.27864742279052734,-0.8643151521682739
1711545072283479600,2.7124794921875,0.9638996124267578,-0.10949277877807617,-0.3293232321739197
1711545072302361900,2.73136181640625,0.5556745529174805,-0.1444392204284668,0.5157815217971802
1711545072321244400,2.750244384765625,0.0212860107421875,-0.036397457122802734,0.5077184438705444
1711545072340126700,2.769126708984375,0.03788328170776367,0.2015838623046875,0.14469486474990845
1711545072359009300,2.78800927734375,0.36900758743286133,0.16312599182128906,-0.002428680658340454
1711545072377891600,2.8068916015625,0.4857029914855957,0.012010574340820312,0.12204992771148682
1711545072396774100,2.825774169921875,0.36530447006225586,-0.09834671020507812,0.09249287843704224
1711545072415656400,2.844656494140625,0.1112823486328125,-0.052388668060302734,-0.0663108378648758
1711545072434539000,2.8635390625,-0.2546725273132324,0.10127735137939453,0.029890477657318115
1711545072453421300,2.88242138671875,0.19005155563354492,0.17756366729736328,0.11728185415267944
1711545072472303900,2.901303955078125,0.41620445251464844,0.07775402069091797,0.22326362133026123
1711545072491186200,2.920186279296875,0.11694765090942383,-0.021175384521484375,0.23940624296665192
1711545072510068700,2.93906884765625,-0.16911029815673828,0.007880687713623047,0.13089309632778168
1711545072528951000,2.957950927734375,-0.29802417755126953,0.04108858108520508,0.12519077956676483
1711545072547833600,2.97683349609375,-0.42282581329345703,-0.05736541748046875,0.07307147979736328
1711545072566716000,2.9957158203125,-0.4953618049621582,-0.07286930084228516,0.053043365478515625
1711545072585598500,3.014598388671875,-0.5014376640319824,-0.036303043365478516,0.029694274067878723
1711545072604480800,3.033480712890625,-0.33188295364379883,0.016295433044433594,-0.013443410396575928
1711545072623363300,3.05236328125,-0.18720674514770508,0.12975311279296875,0.15021879971027374
1711545072642245600,3.07124560546875,0.42423248291015625,0.09561443328857422,0.16107486188411713
1711545072661128200,3.090128173828125,0.49039459228515625,0.024732112884521484,0.26107102632522583
1711545072680010500,3.109010498046875,0.3945794105529785,0.002849102020263672,0.09968949854373932
1711545072698893000,3.12789306640625,0.16622304916381836,-0.06712579727172852,-0.007005125284194946
1711545072717775400,3.146775390625,-0.19188690185546875,-0.09478569030761719,0.09278230369091034
1711545072736658000,3.165657958984375,-0.17303895950317383,0.03134298324584961,0.07391148805618286
1711545072755540200,3.184540283203125,-0.18158960342407227,0.10096073150634766,0.1611100435256958
1711545072774422800,3.2034228515625,-0.10569906234741211,0.11002922058105469,0.11455421149730682
1711545072793305000,3.22230517578125,0.01631927490234375,0.02050161361694336,0.042460761964321136
1711545072812187600,3.241187744140625,0.12139320373535156,-0.07324695587158203,0.1093030720949173
1711545072831070200,3.2600703125,0.09089279174804688,-0.16917753219604492,0.12501142919063568
1711545072849952500,3.278952392578125,-0.11871719360351562,-0.18920660018920898,-0.006084725260734558
1711545072868835000,3.2978349609375,-0.29915380477905273,-0.09599781036376953,-0.04755827412009239
1711545072887717400,3.31671728515625,-0.24096250534057617,-0.025734901428222656,-0.02112482488155365
1711545072906600000,3.335599853515625,-0.01588153839111328,-0.0709238052368164,-0.017856506630778313
1711545072925482200,3.354482177734375,0.20344161987304688,-0.006478786468505859,0.06334315240383148
1711545072944364800,3.37336474609375,0.03619813919067383,0.08911800384521484,0.13466143608093262
1711545072963247000,3.3922470703125,0.0780634880065918,0.1895594596862793,0.11643849313259125
1711545072982129700,3.411129638671875,0.21185064315795898,0.20625019073486328,0.18144483864307404
1711545073001012000,3.430011962890625,0.22077608108520508,0.16271638870239258,0.184846431016922
1711545073019894500,3.44889453125,0.17852258682250977,0.033721923828125,0.14037472009658813
1711545073038776800,3.46777685546875,0.02987957000732422,-0.10989713668823242,0.05585509166121483
1711545073057659400,3.486659423828125,-0.030693531036376953,-0.1022348403930664,-0.00828598439693451
1711545073076542000,3.5055419921875,0.008032798767089844,-0.07525110244750977,0.007357805967330933
1711545073095424300,3.52442431640625,-0.35005950927734375,-0.044426918029785156,0.05605001002550125
1711545073114306800,3.543306884765625,-0.4460883140563965,0.04005908966064453,0.014790385961532593
1711545073133189000,3.562189208984375,-0.40494298934936523,0.02225208282470703,-0.038073018193244934
1711545073152071700,3.58107177734375,-0.29763269424438477,-0.030601978302001953,0.05694635212421417
1711545073170954000,3.5999541015625,-0.047165870666503906,0.04703807830810547,0.10898695886135101
1711545073189836500,3.61883642578125,0.1455669403076172,0.025317668914794922,0.027282118797302246
1711545073208719000,3.637718994140625,0.32111215591430664,-0.06401920318603516,-0.018905222415924072
1711545073227601400,3.656601318359375,0.15921974182128906,-0.006937503814697266,0.0527314692735672
1711545073246484000,3.67548388671875,0.10655641555786133,0.06236839294433594,0.2346770316362381
1711545073265366300,3.6943662109375,0.15740394592285156,0.07058286666870117,0.1781928688287735
1711545073284248800,3.713248779296875,-0.10610818862915039,0.015826702117919922,0.10344472527503967
1711545073303131100,3.732131103515625,-0.13994169235229492,0.05788421630859375,0.06738057732582092
1711545073322013700,3.751013671875,-0.0687098503112793,0.13522911071777344,0.19324065744876862
1711545073340896300,3.769896240234375,0.2575039863586426,0.14638996124267578,0.14671853184700012
1711545073359778600,3.788778564453125,0.2920951843261719,-0.07402420043945312,0.07286402583122253
1711545073378661000,3.8076611328125,0.7548165321350098,-0.30165672302246094,0.058910220861434937
1711545073397543400,3.82654345703125,-0.46492958068847656,-0.0998544692993164,-0.22693896293640137
1711545073416426000,3.845426025390625,-0.39285802841186523,0.20084095001220703,-0.35716599225997925
1711545073435308500,3.86430859375,-0.9316058158874512,0.0819854736328125,0.23562496900558472
1711545073454190800,3.88319091796875,-0.9882583618164062,-0.14000511169433594,0.09623125195503235
1711545073473073400,3.902073486328125,-0.7945852279663086,-0.00351715087890625,-0.3691236972808838
1711545073491955700,3.920955810546875,0.3297004699707031,0.0863804817199707,-0.4033595621585846
1711545073510838300,3.93983837890625,1.1558551788330078,0.04010581970214844,-0.04932931065559387
1711545073529720800,3.958720947265625,0.9355583190917969,-0.07499027252197266,0.6201173067092896
1711545073548603100,3.97760302734375,0.4937100410461426,-0.019788265228271484,0.8055006861686707
1711545073567485700,3.996485595703125,-0.10916614532470703,0.15672826766967773,0.5612900257110596
1711545073586368000,4.015367919921875,-0.15152740478515625,0.28383922576904297,0.04711844027042389
1711545073605250600,4.03425048828125,-0.013803482055664062,0.17162227630615234,-0.1445167362689972
1711545073624133000,4.053133056640625,0.1923060417175293,0.0022072792053222656,-0.08644774556159973
1711545073643015400,4.072015380859375,0.2250962257385254,-0.06435728073120117,0.11097955703735352
1711545073661898000,4.09089794921875,0.23122406005859375,-0.11349725723266602,0.142914280295372
1711545073680780300,4.1097802734375,0.02113819122314453,-0.22754240036010742,-0.000884324312210083
1711545073699662800,4.128662841796875,-0.14501333236694336,-0.20264863967895508,-0.21368186175823212
1711545073718545400,4.14754541015625,-0.23851346969604492,-0.09633588790893555,-0.2487126588821411
1711545073737427700,4.166427734375,-0.2948880195617676,-0.03302764892578125,-0.2054314911365509
1711545073756310300,4.185310302734375,-0.15225505828857422,-0.039188385009765625,-0.08037668466567993
1711545073775192800,4.20419287109375,-0.18560791015625,-0.06441068649291992,0.043724581599235535
1711545073794075100,4.2230751953125,0.010414600372314453,-0.08547353744506836,0.02762708067893982
1711545073812957700,4.241957763671875,0.05775785446166992,-0.04873037338256836,0.18074141442775726
1711545073831840300,4.26084033203125,0.09924030303955078,0.06789112091064453,0.2305382788181305
1711545073850722600,4.27972265625,-0.014080524444580078,0.12039470672607422,0.21119749546051025
1711545073869605000,4.298605224609375,-0.08124637603759766,0.11425399780273438,0.11266182363033295
1711545073888487400,4.3174873046875,0.016697406768798828,0.1060948371887207,0.1277504414319992
1711545073907370000,4.336369873046875,0.013679027557373047,0.0608363151550293,0.20057594776153564
1711545073926252500,4.35525244140625,-0.004136562347412109,0.04796934127807617,0.13349264860153198
1711545073945135000,4.374135009765625,-0.04790353775024414,0.02784109115600586,0.07051196694374084
1711545073964017400,4.393017333984375,-0.014859676361083984,0.044451236724853516,0.018108636140823364
1711545073982900000,4.41189990234375,0.05197715759277344,0.013987541198730469,0.026451855897903442
1711545074001782300,4.4307822265625,0.06165742874145508,-0.11073780059814453,0.0261860191822052
1711545074020664800,4.449664794921875,-0.006988048553466797,-0.1857147216796875,-0.04642215371131897
1711545074039547400,4.46854736328125,-0.01711130142211914,-0.10394716262817383,-0.09434464573860168
1711545074058429700,4.4874296875,-0.07859992980957031,0.0629429817199707,-0.0569579154253006
1711545074077312300,4.506312255859375,-0.1026768684387207,0.11402606964111328,-0.01789882779121399
1711545074096194800,4.52519482421875,-0.02325916290283203,0.022802352905273438,0.009382963180541992
1711545074115077000,4.5440771484375,0.08219766616821289,-0.006126880645751953,0.07623136043548584
1711545074133959700,4.562959716796875,0.3178086280822754,0.0499873161315918,0.1347326636314392
1711545074152842200,4.58184228515625,0.29324865341186523,0.06227588653564453,0.26304200291633606
1711545074171724500,4.600724609375,0.16385698318481445,0.11736631393432617,0.28581440448760986
1711545074190607000,4.619607177734375,-0.08074045181274414,0.0801839828491211,0.23337435722351074
1711545074209489700,4.63848974609375,-0.1994938850402832,0.018291473388671875,0.07304379343986511
1711545074228372200,4.657372314453125,-0.24249839782714844,-0.017203330993652344,0.016179054975509644
1711545074247254500,4.676254638671875,-0.27342891693115234,0.03229951858520508,0.038155972957611084
1711545074266137000,4.69513720703125,-0.0801844596862793,-0.026779651641845703,0.03046467900276184
1711545074285019600,4.71401953125,0.054735660552978516,-0.02969980239868164,0.050015658140182495
1711545074303902000,4.73290185546875,0.059079647064208984,-0.014263629913330078,0.06608337163925171
1711545074322784500,4.751784423828125,-0.012608528137207031,-0.0518035888671875,0.02044135332107544
1711545074341667000,4.7706669921875,-0.035207271575927734,-0.021725177764892578,-0.008567839860916138
1711545074360549400,4.78954931640625,0.0739736557006836,0.04141712188720703,-0.08022475242614746
1711545074379432000,4.808431884765625,0.1567521095275879,-0.006381034851074219,-0.03457456827163696
1711545074398314500,4.827314453125,0.17464923858642578,-0.07157087326049805,0.09848776459693909
1711545074417196800,4.84619677734375,0.1479201316833496,-0.03275108337402344,0.0810694694519043
1711545074436079400,4.865079345703125,0.036602020263671875,0.04134988784790039,0.07135277986526489
1711545074454962000,4.8839619140625,-0.053365230560302734,0.02299785614013672,0.05457770824432373
1711545074473844500,4.902844482421875,-0.07315826416015625,0.022250652313232422,0.09063240885734558
1711545074492726800,4.921726806640625,-0.1116476058959961,0.031375885009765625,0.13639762997627258
1711545074511609300,4.940609375,-0.3382530212402344,0.10348892211914062,0.16920191049575806
1711545074530492000,4.959491943359375,-0.35773277282714844,0.13443279266357422,0.178857684135437
1711545074549374500,4.97837451171875,-0.15021753311157227,0.10953807830810547,0.17524409294128418
1711545074568256800,4.9972568359375,0.049349308013916016,-0.00900411605834961,0.05657795071601868
1711545074587139300,5.016139404296875,0.17568397521972656,-0.10635089874267578,-0.0026324987411499023
1711545074606022000,5.03502197265625,0.1157689094543457,-0.08160781860351562,0.007769197225570679
1711545074624904200,5.053904296875,0.0813298225402832,-0.011469364166259766,0.015901267528533936
1711545074643786800,5.072786865234375,0.09868240356445312,0.010191917419433594,-0.013782620429992676
1711545074662669300,5.09166943359375,0.012025833129882812,-0.02062511444091797,-0.038063257932662964
1711545074681552000,5.1105517578125,0.12729644775390625,-0.020813941955566406,0.0066900551319122314
1711545074700434200,5.12943408203125,0.15712738037109375,-0.041226863861083984,-0.006850451231002808
1711545074719316700,5.148316650390625,-0.0002903938293457031,-0.028478622436523438,-0.01609840989112854
1711545074738199300,5.16719921875,-0.23656702041625977,0.01020193099975586,0.05042394995689392
1711545074757081900,5.186081787109375,-0.31423187255859375,0.05630826950073242,0.09574353694915771
1711545074775964200,5.204964111328125,-0.12595176696777344,0.04724597930908203,0.15522387623786926
1711545074794846700,5.2238466796875,0.08551025390625,0.0135650634765625,0.15030056238174438
1711545074813729300,5.242729248046875,0.16095495223999023,0.007210254669189453,0.14550554752349854
1711545074832611800,5.26161181640625,0.08176040649414062,0.028851032257080078,0.10685479640960693
1711545074851494100,5.280494140625,0.0007791519165039062,-0.008499622344970703,0.03249433636665344
1711545074870376700,5.299376708984375,-0.011473655700683594,-0.02202606201171875,-0.04584673047065735
1711545074889259300,5.31825927734375,-0.06716775894165039,-0.05110931396484375,-0.014707893133163452
1711545074908141800,5.337141845703125,0.05560731887817383,-0.008713245391845703,0.017928987741470337
1711545074927024000,5.356024169921875,0.11380863189697266,0.04994487762451172,0.12622493505477905
1711545074945906700,5.37490673828125,0.10321664810180664,-0.0032939910888671875,0.08494052290916443
1711545074964789200,5.393789306640625,-0.014031410217285156,-0.030499935150146484,0.020796537399291992
1711545074983671800,5.412671875,-0.11453676223754883,0.02488422393798828,0.023661106824874878
1711545075002554400,5.431554443359375,-0.13654136657714844,-0.006678104400634766,0.030677229166030884
1711545075021436700,5.450436767578125,-0.13862037658691406,-0.006463050842285156,0.039735764265060425
1711545075040319200,5.4693193359375,-0.12200927734375,0.03363990783691406,0.09723713994026184
1711545075059201800,5.488201904296875,0.010784626007080078,0.022747039794921875,0.08373168110847473
1711545075078084400,5.50708447265625,0.06712818145751953,0.014039993286132812,0.03495267033576965
1711545075096967000,5.525966796875,0.09023332595825195,-0.030701160430908203,0.02527618408203125
1711545075115849200,5.54484912109375,0.027124881744384766,-0.025586605072021484,0.07130095362663269
1711545075134731800,5.563731689453125,-0.054680824279785156,0.04438924789428711,0.11762246489524841
1711545075153614300,5.5826142578125,0.037390708923339844,0.05307817459106445,0.06829094886779785
1711545075172497000,5.601496826171875,0.14182376861572266,-0.024474143981933594,0.05849409103393555
1711545075191379500,5.62037939453125,0.09843301773071289,-0.010892868041992188,0.057677388191223145
1711545075210261800,5.63926171875,0.10563945770263672,0.019838809967041016,0.017508208751678467
1711545075229144300,5.658144287109375,-0.010331153869628906,0.037992000579833984,0.09808284044265747
1711545075248027000,5.67702685546875,-0.06793737411499023,-0.000005245208740234375,0.08110803365707397
1711545075266909400,5.695909423828125,-0.1642155647277832,-0.055722713470458984,0.021868497133255005
1711545075285792000,5.7147919921875,-0.11449623107910156,-0.05623769760131836,-0.07349297404289246
1711545075304674300,5.73367431640625,-0.11416912078857422,-0.01318979263305664,0.03767696022987366
1711545075323556900,5.752556884765625,0.04732990264892578,0.07200145721435547,0.13381880521774292
1711545075342439400,5.771439453125,0.03440427780151367,0.049973487854003906,0.15418004989624023
1711545075361322000,5.790322021484375,0.004157066345214844,0.013550281524658203,0.02640947699546814
1711545075380204500,5.80920458984375,-0.10410785675048828,0.05574798583984375,0.006239593029022217
1711545075399087000,5.828087158203125,0.06588983535766602,0.051081180572509766,0.03217422962188721
1711545075417969400,5.846969482421875,0.09885263442993164,-0.02920818328857422,0.12352687120437622
1711545075436852000,5.86585205078125,0.01495361328125,0.017591476440429688,0.10995873808860779
1711545075455734500,5.884734619140625,-0.04486513137817383,0.017597198486328125,0.080354243516922
1711545075474617000,5.9036171875,-0.19114446640014648,-0.015287399291992188,0.1495048999786377
1711545075493499600,5.922499755859375,-0.23617076873779297,-0.06165266036987305,0.08574354648590088
1711545075512382200,5.94138232421875,-0.18999052047729492,-0.015553951263427734,-0.0003770589828491211
1711545075531264500,5.960264404296875,-0.08395195007324219,0.0532526969909668,0.01702660322189331
1711545075550147000,5.97914697265625,-0.0053920745849609375,0.06297588348388672,0.0472206175327301
1711545075569029600,5.998029541015625,0.17938613891601562,0.0002808570861816406,0.025680512189865112
1711545075587912200,6.016912109375,0.25417327880859375,-0.059432029724121094,0.05770263075828552
1711545075606794800,6.035794677734375,0.16162824630737305,-0.048433780670166016,0.05855575203895569
1711545075625677300,6.05467724609375,0.0429539680480957,-0.01505899429321289,-0.0065315961837768555
1711545075644560000,6.073559814453125,-0.013064861297607422,-0.05152702331542969,-0.02987825870513916
1711545075663442200,6.092442138671875,-0.028577327728271484,-0.04239606857299805,-0.016321122646331787
1711545075682324700,6.11132470703125,-0.0014767646789550781,-0.0019011497497558594,0.034585773944854736
1711545075701207300,6.130207275390625,-0.011038780212402344,0.05206155776977539,0.15484273433685303
1711545075720089900,6.14908984375,-0.018594741821289062,0.07159900665283203,0.18214410543441772
1711545075738972400,6.167972412109375,-0.1284008026123047,0.05778980255126953,0.127885103225708
1711545075757855000,6.18685498046875,-0.12918615341186523,-0.023136138916015625,0.0023809075355529785
1711545075776737500,6.205737548828125,-0.0806417465209961,-0.03995037078857422,0.02431526780128479
1711545075795620000,6.2246201171875,0.07961511611938477,0.009133338928222656,0.10090029239654541
1711545075814502700,6.243502685546875,0.016026020050048828,0.04364442825317383,0.16379743814468384
1711545075833385000,6.262385009765625,0.01765155792236328,0.016571998596191406,0.08312064409255981
1711545075852267500,6.281267578125,0.09238386154174805,-0.0313262939453125,-0.021147042512893677
1711545075871150000,6.300150146484375,0.20908880233764648,-0.08043146133422852,-0.0002448558807373047
1711545075890032600,6.31903271484375,0.07238531112670898,-0.03922414779663086,0.10830143094062805
1711545075908915200,6.337915283203125,-0.04844188690185547,0.0757589340209961,0.09431791305541992
1711545075927797800,6.3567978515625,-0.1377725601196289,0.05693626403808594,0.05595529079437256
1711545075946680300,6.375680419921875,-0.019321441650390625,-0.051787376403808594,-0.009151577949523926
1711545075965563000,6.39456298828125,0.16853666305541992,-0.1064453125,-0.01648169755935669
1711545075984445200,6.413445068359375,0.0971689224243164,-0.07555007934570312,0.05055829882621765
1711545076003327700,6.43232763671875,-0.11086750030517578,0.015141487121582031,0.06864926218986511
1711545076022210300,6.451210205078125,-0.18148183822631836,0.02792501449584961,0.01784011721611023
1711545076041092900,6.4700927734375,-0.14749670028686523,0.022911548614501953,0.04607820510864258
1711545076059975400,6.488975341796875,0.06128215789794922,0.0404658317565918,0.05328547954559326
1711545076078858000,6.50785791015625,0.23830509185791016,0.007022857666015625,0.1881699562072754
1711545076097740500,6.526740478515625,0.2453451156616211,0.03861713409423828,0.23136499524116516
1711545076116623000,6.545623046875,0.16397380828857422,0.006548881530761719,0.1654142439365387
1711545076135505700,6.564505615234375,-0.06476926803588867,-0.06019115447998047,0.06387203931808472
1711545076154388200,6.58338818359375,-0.16016244888305664,-0.035471439361572266,-0.04028362035751343
1711545076173270800,6.602270751953125,-0.11806297302246094,0.010821342468261719,-0.028996556997299194
1711545076192153300,6.6211533203125,-0.06060600280761719,-0.007928848266601562,0.04613536596298218
1711545076211036000,6.640035888671875,-0.009866714477539062,0.02783489227294922,0.10779407620429993
1711545076229918500,6.65891845703125,0.001865386962890625,0.026682376861572266,0.059512168169021606
1711545076248800800,6.67780078125,0.011391162872314453,-0.02865886688232422,-0.020296841859817505
1711545076267683300,6.696683349609375,-0.0068302154541015625,-0.08225536346435547,0.02031037211418152
1711545076286566000,6.71556591796875,0.09413909912109375,-0.05888938903808594,0.010189026594161987
1711545076305448400,6.734448486328125,0.06595325469970703,-0.01392984390258789,0.051335275173187256
1711545076324331000,6.7533310546875,-0.017343521118164062,0.03695344924926758,0.08115673065185547
1711545076343213600,6.772213623046875,-0.06173896789550781,0.03833818435668945,0.11438560485839844
1711545076362096000,6.79109619140625,-0.09681463241577148,0.020066261291503906,0.13866692781448364
1711545076380978700,6.809978759765625,-0.08461332321166992,0.01245260238647461,0.03768303990364075
1711545076399861200,6.828861328125,-0.006866455078125,-0.007111072540283203,0.027249306440353394
1711545076418743800,6.847743896484375,0.00027751922607421875,0.0305633544921875,0.1363253891468048
1711545076437626400,6.86662646484375,0.015739917755126953,0.09081125259399414,0.11330118775367737
1711545076456509000,6.885509033203125,0.035237789154052734,0.018073081970214844,0.08652156591415405
1711545076475391500,6.9043916015625,0.08822250366210938,-0.04372215270996094,0.07404470443725586
1711545076494274000,6.923274169921875,0.07574176788330078,-0.05924415588378906,0.03882551193237305
1711545076513156600,6.942156494140625,-0.07636070251464844,-0.04579734802246094,-0.01894208788871765
1711545076532039200,6.9610390625,-0.0992131233215332,-0.014218330383300781,-0.04904741048812866
1711545076550921700,6.979921630859375,-0.09830856323242188,-0.016693115234375,0.007664352655410767
1711545076569804300,6.99880419921875,-0.05715322494506836,-0.05631256103515625,0.04206857085227966
1711545076588686800,7.017686767578125,-0.018076419830322266,-0.03363752365112305,0.07010379433631897
1711545076607569400,7.0365693359375,-0.05026960372924805,0.054279327392578125,0.08114278316497803
1711545076626452000,7.055451904296875,-0.028851032257080078,0.13494300842285156,0.07501477003097534
1711545076645334500,7.07433447265625,-0.13234806060791016,0.0760354995727539,0.12340590357780457
1711545076664217000,7.093217041015625,-0.020343303680419922,0.027304649353027344,0.043666183948516846
1711545076683099600,7.112099609375,0.11602115631103516,-0.0045757293701171875,0.07117500901222229
1711545076701982200,7.130982177734375,0.16912126541137695,0.008710861206054688,0.11840927600860596
1711545076720864800,7.14986474609375,0.13626861572265625,0.03429889678955078,0.13446515798568726
1711545076739747300,7.168747314453125,0.0009965896606445312,0.020720481872558594,0.049200743436813354
1711545076758630000,7.1876298828125,-0.03876972198486328,-0.05939483642578125,-0.05489125847816467
1711545076777512400,7.206512451171875,-0.09703493118286133,-0.10152721405029297,-0.09606295824050903
1711545076796395000,7.22539501953125,-0.2983264923095703,-0.05707502365112305,-0.05315670371055603
1711545076815277600,7.244277587890625,-0.22490882873535156,0.036670684814453125,-0.0019502043724060059
1711545076834160000,7.26316015625,0.028553485870361328,0.11575794219970703,0.06452056765556335
1711545076853042700,7.282042724609375,0.05377626419067383,0.06476020812988281,0.2222411036491394
1711545076871925200,7.30092529296875,0.04255247116088867,0.037308692932128906,0.1725415289402008
1711545076890807800,7.319807861328125,-0.02657032012939453,0.04917430877685547,0.09040385484695435
1711545076909690400,7.3386904296875,-0.15203285217285156,0.04559040069580078,0.09666723012924194
1711545076928573000,7.357572998046875,-0.06925249099731445,0.040589332580566406,0.07763302326202393
1711545076947455500,7.37645556640625,0.02778005599975586,0.0403289794921875,0.048456788063049316
1711545076966338000,7.395338134765625,0.10582208633422852,-0.0028839111328125,-0.02447289228439331
1711545076985220600,7.414220703125,0.16572809219360352,-0.037841796875,-0.056447505950927734
1711545077004103200,7.433103271484375,0.17000436782836914,-0.0348048210144043,0.005916088819503784
1711545077022985700,7.45198583984375,0.0013942718505859375,-0.021203041076660156,0.06830576062202454
1711545077041868300,7.470868408203125,-0.17124366760253906,-0.01607799530029297,0.04905995726585388
1711545077060750800,7.489750732421875,-0.18835735321044922,0.007053852081298828,0.07653525471687317
1711545077079633400,7.50863330078125,-0.06207466125488281,0.008166790008544922,0.04700002074241638
1711545077098516000,7.527515869140625,-0.06859922409057617,0.007250785827636719,0.0746091902256012
1711545077117398800,7.546398681640625,-0.059814453125,0.09894037246704102,0.144250750541687
1711545077136281300,7.56528125,0.0000095367431640625,0.09091329574584961,0.1613653302192688
1711545077155164000,7.584163818359375,0.07021093368530273,-0.021739482879638672,0.10331127047538757
1711545077174046500,7.60304638671875,0.0561985969543457,-0.05643892288208008,-0.05899232625961304
1711545077192929000,7.621928955078125,-0.01037454605102539,-0.06924247741699219,-0.05903655290603638
1711545077211811600,7.6408115234375,0.03171730041503906,-0.0037407875061035156,0.042938053607940674
1711545077230694100,7.659694091796875,0.07369613647460938,0.04883718490600586,0.07461589574813843
1711545077249576700,7.67857666015625,0.07328462600708008,0.013802051544189453,-0.008732199668884277
1711545077268459300,7.697459228515625,-0.04025888442993164,-0.008656978607177734,-0.022067874670028687
1711545077287341800,7.716341796875,-0.11440753936767578,-0.019617080688476562,-0.08122757077217102
1711545077306224400,7.735224365234375,-0.1715564727783203,-0.013936996459960938,-0.03750044107437134
1711545077325107000,7.75410693359375,-0.040752410888671875,-0.0007863044738769531,0.03719106316566467
1711545077343989500,7.772989501953125,0.1601719856262207,-0.03471660614013672,0.05555403232574463
1711545077362872300,7.791872314453125,-0.01874256134033203,-0.024876117706298828,0.10926038026809692
1711545077381755000,7.8107548828125,-0.1741313934326172,0.025729656219482422,0.18841931223869324
1711545077400637400,7.829637451171875,-0.3473186492919922,0.07586097717285156,0.16353470087051392
1711545077419520000,7.84852001953125,-0.14878463745117188,0.04080677032470703,-0.0270346999168396
1711545077438402600,7.867402587890625,0.03961801528930664,-0.04320573806762695,-0.05150187015533447
1711545077457285000,7.88628515625,0.21720027923583984,-0.030684471130371094,-0.014215201139450073
1711545077476167700,7.905167724609375,0.31476259231567383,0.028298377990722656,0.08719465136528015
1711545077495050200,7.92405029296875,0.21482276916503906,0.04393959045410156,0.20018252730369568
1711545077513932800,7.942932861328125,-0.05003690719604492,0.03997945785522461,0.1639154553413391
1711545077532815600,7.961815673828125,-0.2149333953857422,0.08137035369873047,0.05226793885231018
1711545077551698200,7.9806982421875,-0.23728227615356445,0.0571141242980957,-0.042835533618927
1711545077570580700,7.999580810546875,-0.0902714729309082,-0.011535167694091797,-0.054760366678237915
1711545077589463300,8.01846337890625,-0.0012331008911132812,-0.019503116607666016,0.0531238317489624
1711545077608345900,8.037345947265624,0.08496522903442383,0.04003190994262695,0.10736489295959473
1711545077627228400,8.056228515625,0.03683805465698242,0.011372089385986328,0.026540100574493408
1711545077646111000,8.075111083984375,0.0466618537902832,-0.04883718490600586,-0.06607919931411743
1711545077664993500,8.09399365234375,0.01567840576171875,-0.10880756378173828,-0.10023781657218933
1711545077683876400,8.11287646484375,0.03481245040893555,-0.10353660583496094,-0.10985404253005981
1711545077702759000,8.131759033203124,0.013985157012939453,-0.04739952087402344,0.002855837345123291
1711545077721641500,8.150641357421875,0.05913734436035156,0.0625619888305664,0.07503175735473633
1711545077740524000,8.16952392578125,-0.004795551300048828,0.0852499008178711,0.15726059675216675
1711545077759406600,8.188406494140626,0.006135463714599609,0.06967639923095703,0.21788030862808228
1711545077778289200,8.2072890625,0.09473562240600586,0.05983400344848633,0.1478695273399353
1711545077797171700,8.226171630859374,0.0017180442810058594,0.0111541748046875,0.11583602428436279
1711545077816054500,8.245054443359376,-0.12467050552368164,0.025209903717041016,0.012433916330337524
1711545077834937000,8.26393701171875,-0.16875076293945312,0.02648782730102539,0.013470441102981567
1711545077853819600,8.282819580078124,0.0015196800231933594,-0.021587371826171875,0.036878496408462524
1711545077872702200,8.3017021484375,0.13889169692993164,-0.04648780822753906,0.062289535999298096
1711545077891584800,8.320584716796875,0.12825679779052734,0.02679920196533203,0.07289761304855347
1711545077910467300,8.33946728515625,0.011584281921386719,0.030349254608154297,0.05059310793876648
1711545077929350000,8.358349853515625,-0.1297922134399414,-0.002124309539794922,0.0041086673736572266
1711545077948232700,8.377232666015624,-0.1918926239013672,0.013177871704101562,-0.019881486892700195
1711545077967115300,8.396115234375,-0.0007214546203613281,0.01097726821899414,0.00877082347869873
1711545077985997800,8.414997802734375,0.06509971618652344,-0.008679389953613281,0.10621356964111328
1711545078004880400,8.43388037109375,0.046967506408691406,-0.0436558723449707,0.10215920209884644
1711545078023763000,8.452762939453125,0.018383026123046875,0.015254020690917969,0.04664936661720276
1711545078042645500,8.4716455078125,0.054907798767089844,0.024076461791992188,0.07351312041282654
1711545078061528300,8.4905283203125,-0.032520294189453125,0.0010433197021484375,0.0747169554233551
1711545078080411000,8.509410888671875,-0.041783809661865234,-0.006726264953613281,-0.012824475765228271
1711545078099293400,8.52829345703125,0.024895191192626953,-0.05553388595581055,-0.05164778232574463
1711545078118176000,8.547176025390625,0.025691986083984375,-0.06656408309936523,0.00855112075805664
1711545078137058600,8.56605859375,-0.02854299545288086,0.014452457427978516,0.04824310541152954
1711545078155941400,8.58494140625,-0.06392145156860352,0.017654895782470703,0.09264257550239563
1711545078174824000,8.603823974609375,-0.039076805114746094,-0.04077005386352539,0.05806419253349304
1711545078193706500,8.62270654296875,-0.02445077896118164,-0.07830238342285156,0.012540549039840698
1711545078212589000,8.641589111328125,-0.034929752349853516,-0.06415700912475586,0.009571433067321777
1711545078231471600,8.6604716796875,-0.04610586166381836,-0.022834300994873047,0.12763825058937073
1711545078250354200,8.679354248046875,0.02815389633178711,0.04077339172363281,0.12421321868896484
1711545078269237000,8.698237060546875,0.07761335372924805,0.00823211669921875,0.11552682518959045
1711545078288119600,8.71711962890625,0.14607572555541992,-0.07431364059448242,0.08817416429519653
1711545078307002000,8.736002197265625,0.12994003295898438,-0.06983280181884766,0.07798564434051514
1711545078325884700,8.754884765625,0.10861873626708984,-0.03197765350341797,0.10866540670394897
1711545078344767500,8.773767578125,-0.06332063674926758,-0.01950836181640625,0.12562239170074463
1711545078363650000,8.792650146484375,-0.19708633422851562,-0.025209426879882812,0.15546804666519165
1711545078382532600,8.81153271484375,-0.22034883499145508,0.033524513244628906,0.15599370002746582
1711545078401415200,8.830415283203125,-0.06774282455444336,0.08605480194091797,0.07733029127120972
1711545078420297700,8.849297607421875,0.11280679702758789,0.07398414611816406,0.0793880820274353
1711545078439180500,8.8681806640625,0.30103540420532227,0.05269956588745117,0.18167316913604736
1711545078458063000,8.88706298828125,0.3211512565612793,0.08577489852905273,0.22040009498596191
1711545078476945700,8.905945556640624,0.21148109436035156,0.017231464385986328,0.14406228065490723
1711545078495828200,8.924828125,-0.10410785675048828,-0.06281328201293945,0.05931496620178223
1711545078514711000,8.9437109375,-0.25110387802124023,-0.0623469352722168,-0.07492667436599731
1711545078533593600,8.962593505859376,-0.3436579704284668,-0.05705833435058594,0.008087217807769775
1711545078552476200,8.98147607421875,-0.18441295623779297,-0.0013718605041503906,0.006888985633850098
1711545078571358700,9.000358642578124,0.03129863739013672,-0.03810739517211914,-0.07174542546272278
1711545078590241300,9.0192412109375,0.11494255065917969,-0.09106206893920898,-0.09734547138214111
1711545078609124000,9.0381240234375,0.06604480743408203,-0.06649446487426758,-0.09244674444198608
1711545078628006700,9.057006591796876,0.018222808837890625,-0.02994537353515625,-0.11277210712432861
1711545078646889200,9.07588916015625,0.013397693634033203,-0.005924224853515625,0.008166849613189697
1711545078665771800,9.094771728515624,0.02995920181274414,0.09940958023071289,0.1393178105354309
1711545078684654600,9.113654541015626,0.04746675491333008,0.1361088752746582,0.1840718388557434
1711545078703537200,9.132537109375,0.12147760391235352,0.0743098258972168,0.09708350896835327
1711545078722419700,9.151419677734374,0.15598440170288086,-0.002155303955078125,0.07700502872467041
1711545078741302300,9.17030224609375,0.09195137023925781,0.012015342712402344,0.06363654136657715
1711545078760185000,9.18918505859375,-0.16109704971313477,0.094879150390625,0.10779827833175659
1711545078779067600,9.208067626953126,-0.2975497245788574,0.11224985122680664,0.06949126720428467
1711545078797950200,9.2269501953125,-0.22693490982055664,0.05032062530517578,-0.005055546760559082
1711545078816832800,9.245832763671874,-0.08657360076904297,0.02346324920654297,0.002132415771484375
1711545078835715300,9.26471533203125,0.047544002532958984,-0.022400856018066406,-0.03470355272293091
1711545078854598100,9.28359814453125,0.008007526397705078,0.025774002075195312,-0.05996885895729065
1711545078873480700,9.302480712890626,-0.13620471954345703,0.042240142822265625,-0.05482092499732971
1711545078892363300,9.32136328125,-0.15502500534057617,-0.0007739067077636719,-0.07780736684799194
1711545078911246000,9.34024609375,0.01284646987915039,-0.061007022857666016,-0.06380894780158997
1711545078930128600,9.359128662109375,-0.1036992073059082,-0.08112049102783203,-0.06427296996116638
1711545078949011200,9.37801123046875,-0.15051507949829102,-0.034711360931396484,-0.08318343758583069
1711545078967893800,9.396893798828126,-0.1341419219970703,-0.0005130767822265625,-0.08950081467628479
1711545078986776600,9.415776611328125,-0.01156759262084961,0.010574817657470703,-0.0510709285736084
1711545079005659100,9.4346591796875,0.029858112335205078,-0.019050121307373047,0.050723910331726074
1711545079024541700,9.453541748046876,0.012039661407470703,-0.005095005035400391,0.08258414268493652
1711545079043424300,9.47242431640625,0.11795759201049805,-0.012796878814697266,0.05992090702056885
1711545079062307000,9.49130712890625,0.024053573608398438,0.003155231475830078,0.17363041639328003
1711545079081189600,9.510189697265625,0.05824995040893555,0.11427068710327148,0.18498992919921875
1711545079100072200,9.529072265625,0.16446828842163086,0.14492464065551758,0.2379213571548462
1711545079118954800,9.547954833984376,0.21334314346313477,0.04366779327392578,0.26079297065734863
1711545079137837600,9.566837646484375,0.1488480567932129,-0.024527549743652344,0.21800106763839722
1711545079156720000,9.58572021484375,-0.005192756652832031,-0.05253314971923828,0.11913782358169556
1711545079175602700,9.604602783203125,-0.16843175888061523,-0.03735923767089844,0.04955697059631348
1711545079194485500,9.623485595703125,-0.2177128791809082,-0.0412297248840332,0.05054354667663574
1711545079213368000,9.6423681640625,0.09206151962280273,-0.11460542678833008,0.033608317375183105
1711545079232250600,9.661250732421875,0.06673145294189453,-0.0799875259399414,0.20949476957321167
1711545079251133400,9.680133544921874,0.2720184326171875,-0.03178977966308594,0.18381845951080322
1711545079270016000,9.69901611328125,0.16395092010498047,0.018938541412353516,0.19005757570266724
1711545079288898600,9.717898681640625,-0.03758716583251953,0.033745765686035156,0.11767387390136719
1711545079307781000,9.736781005859376,-0.17214298248291016,0.11994123458862305,0.08939015865325928
1711545079326664000,9.755663818359375,0.010046005249023438,0.021320819854736328,0.009268879890441895
1711545079345546500,9.77454638671875,0.1989302635192871,0.014679431915283203,0.17902451753616333
1711545079364429000,9.793428955078125,0.328732967376709,0.029952049255371094,0.2636195421218872
1711545079383312000,9.812311767578125,0.21268081665039062,-0.023191452026367188,0.16683459281921387
1711545079402194400,9.8311943359375,0.15524816513061523,-0.03134870529174805,0.04235345125198364
1711545079421077000,9.850076904296875,0.1650090217590332,-0.07984542846679688,0.12721401453018188
1711545079439959600,9.86895947265625,-0.011296749114990234,-0.11864185333251953,0.18400639295578003
1711545079458842400,9.88784228515625,-0.25196266174316406,-0.014983177185058594,0.05736619234085083
1711545079477725000,9.906724853515625,-0.4205756187438965,0.0115203857421875,0.0415768027305603
1711545079496607500,9.925607421875,-0.3615598678588867,0.010915756225585938,0.12140899896621704
1711545079515490300,9.944490234375,-0.17003393173217773,0.02920055389404297,0.22205305099487305
1711545079534372900,9.963372802734375,-0.05519390106201172,0.01411581039428711,0.22781485319137573
1711545079553255400,9.98225537109375,-0.008670330047607422,-0.005709171295166016,0.1808006763458252
1711545079572138000,10.001137939453125,0.037624359130859375,-0.035843849182128906,0.03291642665863037
1711545079591020800,10.020020751953124,-0.04702615737915039,-0.07217550277709961,0.045458078384399414
1711545079609903400,10.0389033203125,-0.01730823516845703,-0.004466056823730469,0.03176069259643555
1711545079628786000,10.057785888671875,-0.02897024154663086,-0.024645328521728516,0.020260274410247803
1711545079647668700,10.076668701171876,-0.014765739440917969,-0.008211135864257812,0.06765890121459961
1711545079666551300,10.09555126953125,0.08728218078613281,0.0704493522644043,0.0763058066368103
1711545079685433900,10.114433837890624,0.13180065155029297,0.05547285079956055,0.13702940940856934
1711545079704316400,10.13331640625,0.03723287582397461,0.05662822723388672,0.17430388927459717
1711545079723199200,10.15219921875,-0.10813760757446289,0.04488086700439453,0.11384254693984985
1711545079742081800,10.171081787109374,-0.1129450798034668,0.016073226928710938,0.028474628925323486
1711545079760964400,10.18996435546875,-0.12871646881103516,-0.028137683868408203,0.09348475933074951
1711545079779847200,10.20884716796875,-0.050482749938964844,0.0409846305847168,0.14410346746444702
1711545079798729700,10.227729736328126,-0.011861801147460938,0.14192914962768555,0.09014350175857544
1711545079817612300,10.2466123046875,0.031865596771240234,0.12839174270629883,0.08882772922515869
1711545079836495000,10.2654951171875,0.17188644409179688,-0.0006699562072753906,0.05061393976211548
1711545079855377700,10.284377685546875,-0.12004804611206055,-0.08077049255371094,-0.06014871597290039
1711545079874260200,10.30326025390625,-0.027169227600097656,-0.0435023307800293,-0.2092374861240387
1711545079893143000,10.32214306640625,0.04375028610229492,-0.04545879364013672,-0.10874244570732117
1711545079912025600,10.341025634765625,-0.06263923645019531,-0.11218547821044922,0.0010103583335876465
1711545079930908200,10.359908203125,-0.17303037643432617,-0.14583301544189453,-0.11598938703536987
1711545079949791000,10.378791015625,-0.19400835037231445,-0.07141590118408203,-0.164688378572464
1711545079968673500,10.397673583984375,-0.13582181930541992,0.026545047760009766,-0.2459670603275299
1711545079987556000,10.41655615234375,-0.12317276000976562,0.0038280487060546875,-0.12521055340766907
1711545080006438700,10.435438720703125,-0.0760955810546875,-0.02426624298095703,-0.07720679044723511
1711545080025321500,10.454321533203125,0.04299163818359375,0.031588077545166016,-0.1556907296180725
1711545080044204000,10.4732041015625,0.27084827423095703,0.032937049865722656,-0.10855129361152649
1711545080063086600,10.492086669921875,0.33651256561279297,0.0029964447021484375,0.10634493827819824
1711545080081969400,10.510969482421874,0.0993185043334961,-0.015700817108154297,0.14721077680587769
1711545080100852000,10.52985205078125,-0.24225330352783203,0.004336833953857422,0.021476030349731445
1711545080119734500,10.548734619140625,-0.3736734390258789,-0.04184865951538086,-0.1313410997390747
1711545080138617300,10.567617431640626,-0.394533634185791,-0.16626691818237305,-0.03411036729812622
1711545080157500000,10.5865,-0.4329395294189453,-0.06071901321411133,0.07969564199447632
1711545080176382500,10.605382568359374,-0.41926145553588867,0.15678977966308594,0.04198223352432251
1711545080195265300,10.624265380859375,-0.45360803604125977,0.32961082458496094,0.11950474977493286
1711545080214147800,10.64314794921875,-0.45264244079589844,0.2853574752807617,0.22668594121932983
1711545080233030400,10.662030517578126,-0.41587209701538086,0.11710786819458008,0.14483290910720825
1711545080251913200,10.680913330078125,-0.4045839309692383,-0.05805015563964844,-0.08563220500946045
1711545080270795800,10.699795654296874,-0.5291919708251953,-0.2873497009277344,-0.09963333606719971
1711545080289678300,10.71867822265625,-0.6251535415649414,-0.34583616256713867,0.033936262130737305
1711545080308561000,10.737560791015625,-0.5236763954162598,-0.2143096923828125,0.09971603751182556
1711545080327443700,10.756443603515624,-0.2888956069946289,-0.12259054183959961,0.2033940553665161
1711545080346326300,10.775326171875,-0.07837772369384766,-0.1952652931213379,0.3031514286994934
1711545080365208800,10.794208740234374,-0.12760448455810547,-0.3077840805053711,0.22734445333480835
1711545080384091600,10.813091552734376,-0.3205857276916504,-0.2769145965576172,0.1927674412727356
1711545080402974200,10.83197412109375,-0.6820621490478516,-0.05037546157836914,0.11949464678764343
1711545080421856800,10.850856689453124,-0.6994185447692871,0.24289751052856445,0.2181643843650818
1711545080440739600,10.869739501953125,-0.324216365814209,0.5429906845092773,0.4341999888420105
1711545080459622100,10.8886220703125,0.04471254348754883,0.8493671417236328,0.6966705322265625
1711545080478504700,10.907504638671876,0.1719837188720703,1.1094708442687988,0.927921712398529
1711545080497387500,10.926387451171875,0.24356746673583984,1.2557721138000488,0.9056301712989807
1711545080516270000,10.94527001953125,0.24050188064575195,1.2813735008239746,0.9323676824569702
1711545080535152600,10.964152587890625,0.11642026901245117,1.343430519104004,0.9707365036010742
1711545080554035500,10.983035400390625,0.033214569091796875,1.3663454055786133,0.8617143034934998
1711545080572918000,11.00191796875,-0.07483386993408203,1.265174388885498,0.7731688618659973
1711545080591800600,11.020800537109375,-0.1643977165222168,0.9475994110107422,0.6551601886749268
1711545080610683100,11.03968310546875,-0.2032947540283203,0.5229339599609375,0.4314400553703308
1711545080629566000,11.05856591796875,-0.30940771102905273,0.13996505737304688,0.25798237323760986
1711545080648448500,11.077448486328125,-0.5473089218139648,-0.13800954818725586,0.06509184837341309
1711545080667331000,11.0963310546875,-0.7855596542358398,-0.2768239974975586,-0.11917340755462646
1711545080686214000,11.1152138671875,-0.8907852172851562,-0.1339716911315918,-0.18571165204048157
1711545080705096400,11.134096435546875,-1.0202102661132812,0.056621551513671875,-0.23042705655097961
1711545080723979300,11.152979248046876,-1.1868152618408203,0.2300868034362793,-0.21414440870285034
1711545080742861800,11.17186181640625,-1.09360933303833,0.42124128341674805,-0.1802581250667572
1711545080761744400,11.190744384765624,-0.8747086524963379,0.42596960067749023,-0.21394091844558716
1711545080780627000,11.209626953125,-0.814572811126709,0.41637325286865234,-0.3148743510246277
1711545080799509800,11.228509765625,-1.0039420127868652,0.4652137756347656,-0.20730459690093994
1711545080818392300,11.247392333984376,-1.233079433441162,0.647822380065918,-0.05990409851074219
1711545080837275000,11.26627490234375,-1.4344892501831055,0.6416993141174316,-0.09496545791625977
1711545080856157700,11.28515771484375,-1.2699942588806152,0.5578060150146484,-0.15243878960609436
1711545080875040300,11.304040283203125,-0.7297911643981934,0.3746657371520996,-0.1475067138671875
1711545080893922800,11.3229228515625,-0.22495126724243164,0.3053860664367676,-0.18837939202785492
1711545080912805600,11.3418056640625,-0.2773728370666504,0.3209648132324219,-0.19710363447666168
1711545080931688200,11.360688232421875,-0.4810295104980469,0.5268325805664062,-0.07433244585990906
1711545080950570800,11.37957080078125,-0.30423402786254883,0.7324652671813965,-0.05647510290145874
1711545080969453600,11.39845361328125,-0.08771371841430664,0.8470296859741211,0.03853234648704529
1711545080988336000,11.417336181640625,0.10540771484375,1.0109901428222656,0.34400853514671326
1711545081007218700,11.43621875,0.6677660942077637,1.0806827545166016,0.4689204692840576
1711545081026101500,11.4551015625,0.9772462844848633,1.0906167030334473,0.34244030714035034
1711545081044984000,11.473984130859375,0.5235586166381836,1.3338298797607422,0.3573280870914459
1711545081063866600,11.49286669921875,0.17232179641723633,1.6962251663208008,0.30745476484298706
1711545081082749200,11.511749267578125,0.3092656135559082,2.0194830894470215,0.31007707118988037
1711545081101632000,11.530632080078124,1.4162120819091797,1.7036547660827637,0.6123098731040955
1711545081120514600,11.5495146484375,2.67824649810791,1.0862336158752441,0.687660813331604
1711545081139397000,11.568397216796875,3.2265472412109375,0.5805726051330566,0.5387679934501648
1711545081158280000,11.587280029296876,3.094052314758301,0.23576927185058594,0.3572855293750763
1711545081177162500,11.60616259765625,2.4453063011169434,-0.0014219284057617188,0.32132577896118164
1711545081196045000,11.625045166015624,2.1422390937805176,-0.16949033737182617,0.5422046780586243
1711545081214927600,11.643927734375,1.8396172523498535,-0.5515365600585938,0.9014171361923218
1711545081233810400,11.662810546875,1.157341480255127,-1.1017141342163086,1.0800257921218872
1711545081252693000,11.68169287109375,0.22412824630737305,-1.529038906097412,0.8481642007827759
1711545081271575600,11.700575439453125,-0.7838377952575684,-1.8378229141235352,0.21287190914154053
1711545081290458400,11.719458251953125,-1.56959867477417,-1.9891700744628906,-0.4371762275695801
1711545081309341000,11.7383408203125,-2.3012757301330566,-2.0496726036071777,-1.0025863647460938
1711545081328223500,11.757223388671875,-2.6954078674316406,-2.1594762802124023,-1.556227684020996
1711545081347106300,11.776106201171874,-2.68804931640625,-2.1732101440429688,-2.2320005893707275
1711545081365988900,11.79498876953125,-2.147103786468506,-2.1780576705932617,-3.3058841228485107
1711545081384871400,11.813871337890625,-0.7704977989196777,-2.606527805328369,-2.4573638439178467
1711545081403754200,11.832754150390626,0.7978916168212891,-1.6935291290283203,-3.505614757537842
1711545081422636800,11.85163671875,0.5275173187255859,-0.5743966102600098,-3.298746347427368
1711545081441519400,11.870519287109374,-0.40429067611694336,-0.6500816345214844,-0.9686398506164551
1711545081460402200,11.889402099609375,-0.4094691276550293,-0.5743522644042969,0.8207460641860962
1711545081479284700,11.90828466796875,-0.17290544509887695,-0.02010965347290039,1.449782133102417
1711545081498167300,11.927167236328126,-0.29238033294677734,0.24405527114868164,1.543003797531128
1711545081517049900,11.9460498046875,-0.40016889572143555,0.21252012252807617,1.0536525249481201
1711545081535932700,11.9649326171875,0.026869773864746094,0.3229217529296875,0.44111961126327515
1711545081554815200,11.983815185546876,0.47165632247924805,0.8159780502319336,0.4421999454498291
1711545081573697800,12.00269775390625,0.7521181106567383,1.3726038932800293,0.7918287515640259
1711545081592580600,12.02158056640625,0.885228157043457,1.7825360298156738,0.9857758283615112
1711545081611463200,12.040463134765625,0.993471622467041,1.8693571090698242,1.126437783241272
1711545081630345700,12.059345703125,1.2022557258605957,1.6200981140136719,0.9648568034172058
1711545081649228300,12.078228271484376,0.7821822166442871,1.0613222122192383,0.6098752021789551
1711545081668111000,12.097111083984375,-0.003150463104248047,0.6157398223876953,0.08385168015956879
1711545081686993700,12.11599365234375,-0.39926576614379883,0.4068756103515625,-0.3867720663547516
1711545081705876200,12.134876220703125,-0.5168437957763672,0.32576847076416016,-0.5119147300720215
1711545081724759000,12.153759033203125,-0.9118399620056152,0.2707972526550293,-0.4219111502170563
1711545081743641600,12.1726416015625,-1.1454010009765625,0.18921518325805664,-0.44861337542533875
1711545081762524200,12.191524169921875,-0.6949195861816406,0.20328855514526367,-0.45222288370132446
1711545081781406700,12.21040673828125,-0.3077859878540039,0.41094493865966797,-0.5608022809028625
1711545081800289500,12.22928955078125,-0.9388632774353027,0.723085880279541,-0.7138043642044067
1711545081819172000,12.248172119140625,-1.6551671028137207,1.1326727867126465,-0.9190653562545776
1711545081838054700,12.2670546875,-1.5110130310058594,1.5666022300720215,-0.840363085269928
1711545081856937200,12.285937255859375,-0.48271846771240234,1.9511780738830566,-0.4969131350517273
1711545081875820000,12.304820068359374,1.1525168418884277,2.1513094902038574,-0.11365942656993866
1711545081894702600,12.32370263671875,2.4351935386657715,2.2511839866638184,0.0743681788444519
1711545081913585200,12.342585205078125,3.098118305206299,2.3859243392944336,0.1151629090309143
1711545081932468000,12.361468017578124,2.1651039123535156,2.730327606201172,0.20901061594486237
1711545081951350500,12.3803505859375,0.0079803466796875,2.9048876762390137,-0.2850310206413269
1711545081970233000,12.399233154296875,-0.5626230239868164,2.9026670455932617,-1.0188825130462646
1711545081989115600,12.41811572265625,1.4158515930175781,1.934408187866211,-1.2901090383529663
1711545082007998500,12.43699853515625,4.2909159660339355,-0.03334617614746094,-1.132976770401001
1711545082026881000,12.455881103515624,6.027448654174805,-2.191481590270996,-0.34765034914016724
1711545082045763600,12.474763671875,5.038662433624268,-3.5057711601257324,0.9485734105110168
1711545082064646400,12.493646484375,2.1162109375,-3.9581174850463867,1.9230362176895142
1711545082083529000,12.512529052734376,-0.9054074287414551,-4.097965240478516,1.7974642515182495
1711545082102411500,12.53141162109375,-2.512756586074829,-4.349571228027344,1.8396546840667725
1711545082121294000,12.550294189453124,-3.1178019046783447,-4.626490592956543,1.4080970287322998
1711545082140176600,12.5691767578125,-2.8982467651367188,-4.490045547485352,0.1089777946472168
1711545082159059500,12.5880595703125,-2.87276554107666,-3.2060351371765137,-1.2229753732681274
1711545082177942000,12.60694189453125,-3.1714017391204834,-1.2463698387145996,-2.046257495880127
1711545082196824600,12.625824462890625,-2.4168572425842285,0.49323225021362305,-1.6574316024780273
1711545082215707400,12.644707275390624,-0.8814959526062012,1.331113338470459,0.3780638575553894
1711545082234590000,12.66358984375,1.407639503479004,1.8142051696777344,1.8671985864639282
1711545082253472500,12.682472412109375,3.372373104095459,1.1351041793823242,2.139411687850952
1711545082272355000,12.70135498046875,3.7608413696289062,-0.18134689331054688,1.7058659791946411
1711545082291238000,12.72023779296875,2.8157382011413574,-1.1890583038330078,0.31827497482299805
1711545082310120400,12.739120361328125,1.4323158264160156,-1.6037793159484863,-0.7617625594139099
1711545082329003000,12.7580029296875,0.18413782119750977,-1.9687552452087402,-0.5859044790267944
1711545082347885600,12.776885498046875,-0.7256746292114258,-2.095724582672119,-0.020482853055000305
1711545082366768400,12.795768310546874,-1.4577603340148926,-1.865889072418213,0.4661761224269867
1711545082385651000,12.81465087890625,-2.117457389831543,-1.5690593719482422,0.756945788860321
1711545082404533500,12.833533447265625,-2.4558300971984863,-1.1673526763916016,0.9818000197410583
1711545082423416000,12.852416015625,-2.7807257175445557,-1.3220458030700684,0.246192067861557
1711545082442299000,12.871298828125,-1.8029770851135254,-0.7553143501281738,0.8523685932159424
1711545082461181400,12.890181396484374,-0.4832725524902344,0.15116357803344727,0.8344523906707764
1711545082480064000,12.90906396484375,0.09251165390014648,0.11726951599121094,1.844533920288086
1711545082498946600,12.927946533203125,0.8102297782897949,0.11915254592895508,2.286083936691284
1711545082517829400,12.946829345703126,1.3866310119628906,0.342069149017334,2.0929932594299316
1711545082536712000,12.9657119140625,1.9391865730285645,0.4540224075317383,1.887139916419983
1711545082555594500,12.984594482421874,3.0238919258117676,0.31871604919433594,1.470670223236084
1711545082574477000,13.00347705078125,3.9496588706970215,0.0024971961975097656,0.6861608624458313
1711545082593359600,13.022359619140625,3.258635997772217,-0.02448129653930664,-0.08678363263607025
1711545082612242400,13.041242431640624,1.128415584564209,1.2090344429016113,-0.16812652349472046
1711545082631125000,13.060125,-0.11634063720703125,2.6395444869995117,0.22445878386497498
1711545082650007600,13.079007568359375,-0.2776012420654297,3.2343554496765137,1.2992981672286987
1711545082668890000,13.09789013671875,0.9450602531433105,2.729565143585205,1.8319013118743896
1711545082687772700,13.116772705078125,2.5111536979675293,1.2739977836608887,0.8299118876457214
1711545082706655500,13.135655517578124,3.290954113006592,-0.4747629165649414,-0.3989587426185608
1711545082725538000,13.1545380859375,2.6010355949401855,-1.9002933502197266,-1.151434063911438
1711545082744420600,13.173420654296875,1.2064690589904785,-2.4778823852539062,-1.517777442932129
1711545082763303200,13.19230322265625,0.11765241622924805,-2.3316164016723633,-0.7919161319732666
1711545082782186000,13.21118603515625,-0.6159305572509766,-1.9268012046813965,0.1436467468738556
1711545082801068500,13.230068603515624,-1.5537776947021484,-1.779942512512207,0.10237625986337662
1711545082819951000,13.248951171875,-2.520732879638672,-1.6262807846069336,-0.4777946472167969
1711545082838833700,13.267833740234375,-3.1328041553497314,-1.3227853775024414,-1.0369116067886353
1711545082857716200,13.28671630859375,-2.883970260620117,-0.8289704322814941,-1.2161314487457275
1711545082876599000,13.30559912109375,-1.6042842864990234,-0.45234012603759766,-1.161289095878601
1711545082895481600,13.324481689453124,0.24109506607055664,-0.6636857986450195,-1.5611519813537598
1711545082914364200,13.3433642578125,1.6409955024719238,-1.0292344093322754,-2.1238021850585938
1711545082933246700,13.362246826171875,2.1956186294555664,-1.5402989387512207,-2.022064447402954
1711545082952129500,13.381129638671876,1.8210930824279785,-1.780191421508789,-1.1290569305419922
1711545082971012000,13.40001220703125,0.9017925262451172,-1.5293874740600586,-0.023596137762069702
1711545082989895000,13.41889501953125,-0.1929917335510254,-0.6629242897033691,0.7129810452461243
1711545083008777500,13.437777587890626,-1.1007461547851562,0.08692693710327148,1.2437695264816284
1711545083027660000,13.456659912109375,-1.6343426704406738,0.43528175354003906,1.2512438297271729
1711545083046542600,13.47554248046875,-1.2658743858337402,0.29549503326416016,0.6767541766166687
1711545083065425400,13.49442529296875,0.17238140106201172,-0.13253402709960938,-0.04049085080623627
1711545083084308000,13.513307861328125,1.3994050025939941,-0.4999508857727051,-0.4363236427307129
1711545083103190500,13.5321904296875,1.7495999336242676,-0.5651569366455078,-0.43890827894210815
1711545083122073000,13.551072998046875,1.0992321968078613,-0.29962778091430664,-0.27367275953292847
1711545083140955600,13.56995556640625,0.12633800506591797,0.16377973556518555,-0.3681112825870514
1711545083159838500,13.58883837890625,-0.5188288688659668,0.33094024658203125,-0.48844993114471436
1711545083178721000,13.607720947265625,-0.39833688735961914,0.34572458267211914,-0.5851997137069702
1711545083197603600,13.626603515625,0.5368657112121582,0.2960929870605469,-0.5835933685302734
1711545083216486100,13.645486083984375,1.5070772171020508,0.14464855194091797,-0.6061305403709412
1711545083235368700,13.66436865234375,1.8211283683776855,-0.020824909210205078,-0.7051334381103516
1711545083254251300,13.683251220703125,1.4458727836608887,-0.10171079635620117,-0.8288405537605286
1711545083273134000,13.702134033203125,1.1341300010681152,-0.11094903945922852,-0.9294956922531128
1711545083292016600,13.7210166015625,0.9755454063415527,-0.2006692886352539,-0.824756383895874
1711545083310899200,13.739899169921875,0.8707833290100098,-0.3000626564025879,-0.743533194065094
1711545083329781800,13.75878173828125,0.4826626777648926,-0.1506662368774414,-0.5635130405426025
1711545083348664300,13.777664306640625,-0.38501977920532227,0.4303402900695801,-0.2713943123817444
1711545083367547000,13.796546875,-0.868168830871582,1.0919137001037598,0.06943274289369583
1711545083386429700,13.8154296875,-0.526219367980957,1.4880943298339844,0.32484352588653564
1711545083405312300,13.834312255859375,0.5341334342956543,1.3040528297424316,0.4948846697807312
1711545083424194800,13.85319482421875,2.0023183822631836,0.7108807563781738,0.472716361284256
1711545083443077400,13.872077392578126,3.03969669342041,-0.13104772567749023,0.5851142406463623
1711545083461960000,13.8909599609375,2.8792943954467773,-1.0352630615234375,0.9288912415504456
1711545083480842500,13.909842529296874,0.9661307334899902,-1.5156760215759277,1.1072818040847778
1711545083499725300,13.928725341796875,-1.0182242393493652,-1.6681437492370605,0.8229957222938538
1711545083518608000,13.94760791015625,-2.111186981201172,-1.9486913681030273,0.6408411264419556
1711545083537490400,13.966490478515626,-2.2524614334106445,-2.2535791397094727,0.4598698616027832
1711545083556373000,13.985373046875,-2.1125926971435547,-2.330415725708008,0.09060647338628769
1711545083575255600,14.004255615234374,-2.075725555419922,-2.262296676635742,-0.3790518641471863
1711545083594138000,14.02313818359375,-2.2165489196777344,-2.0698113441467285,-0.933180570602417
1711545083613020700,14.042020751953125,-1.7022075653076172,-1.517287254333496,-1.1465795040130615
1711545083631903500,14.060903564453126,-0.34246206283569336,-0.7793893814086914,-0.7816852331161499
1711545083650786000,14.0797861328125,1.2602338790893555,-0.020460128784179688,-0.03751103952527046
1711545083669668600,14.098668701171874,2.8601608276367188,0.8616776466369629,0.9485158920288086
1711545083688551200,14.11755126953125,4.26417350769043,1.5050344467163086,1.8712621927261353
1711545083707433700,14.136433837890625,4.8727545738220215,1.516007423400879,2.0439932346343994
1711545083726316300,14.15531640625,4.5260329246521,0.9372663497924805,1.3599249124526978
1711545083745198800,14.17419873046875,3.0403552055358887,-0.07296276092529297,0.3808773159980774
1711545083764081700,14.19308154296875,1.2306528091430664,-0.9105262756347656,-0.16943466663360596
1711545083782964200,14.211964111328125,-0.740048885345459,-1.345879077911377,-0.2641630172729492
1711545083801846800,14.2308466796875,-2.2430405616760254,-1.343038558959961,-0.5263096690177917
1711545083820729300,14.249729248046876,-2.9746837615966797,-1.1989436149597168,-0.6193956136703491
1711545083839612000,14.26861181640625,-2.8152389526367188,-1.0390839576721191,-0.531097412109375
1711545083858494500,14.287494384765624,-1.7336950302124023,-0.9311318397521973,-0.5016549229621887
1711545083877377000,14.306376953125,-0.08413553237915039,-0.9626655578613281,-0.31159234046936035
1711545083896259600,14.325259521484375,1.000981330871582,-0.7054238319396973,0.05545864999294281
1711545083915142400,14.344142333984376,0.8659930229187012,0.010609149932861328,0.5420211553573608
1711545083934025000,14.36302490234375,0.05018186569213867,0.8268866539001465,1.389709711074829
1711545083952907500,14.381907470703124,0.8913083076477051,1.2540416717529297,1.560821294784546
1711545083971790000,14.4007900390625,3.3146166801452637,0.8647198677062988,1.6172752380371094
1711545083990672600,14.419672607421875,4.986128807067871,-0.22718334197998047,1.295687198638916
1711545084009555200,14.43855517578125,4.32697868347168,-1.2874317169189453,0.4144509732723236
1711545084028437800,14.457437744140625,1.844876766204834,-1.5997357368469238,-0.18655365705490112
1711545084047320300,14.4763203125,-0.7132830619812012,-1.522472858428955,-0.22477570176124573
1711545084066203000,14.495202880859376,-2.8964414596557617,-1.1430025100708008,0.03677998483181
1711545084085085700,14.514085693359375,-4.064363479614258,-0.4350247383117676,0.1660950928926468
1711545084103968300,14.53296826171875,-4.336599349975586,0.24549579620361328,0.2943323254585266
1711545084122850800,14.551850830078125,-2.965941905975342,0.6278715133666992,0.26447778940200806
1711545084141733400,14.5707333984375,-0.6145706176757812,0.2949662208557129,0.1932956725358963
1711545084160616000,14.589615966796876,1.59824800491333,-0.14772319793701172,-0.08270033448934555
1711545084179498500,14.60849853515625,3.4152936935424805,-0.3913230895996094,0.0043722763657569885
1711545084198381000,14.627381103515624,3.8570828437805176,-0.41507959365844727,0.32797038555145264
1711545084217263600,14.646263671875,2.2480225563049316,-0.1560988426208496,0.39787715673446655
1711545084236146200,14.665146240234375,0.28957557678222656,-0.027573108673095703,0.15990999341011047
1711545084255028700,14.68402880859375,-1.1523337364196777,-0.19466638565063477,-0.0013564378023147583
1711545084273911300,14.702911376953125,-1.8748817443847656,-0.33175086975097656,-0.23535576462745667
1711545084292794000,14.721794189453124,-1.8122892379760742,-0.36595821380615234,-0.34486380219459534
1711545084311676700,14.7406767578125,-1.0041570663452148,-0.19615983963012695,-0.12079190462827682
1711545084330559200,14.759559326171875,-0.07938718795776367,0.12389469146728516,0.2522730231285095
1711545084349441800,14.77844189453125,0.46411895751953125,0.25858116149902344,0.6668263077735901
1711545084368324400,14.797324462890625,0.9270648956298828,0.331697940826416,0.838763415813446
1711545084387207000,14.81620703125,1.106846809387207,0.30007457733154297,1.0086082220077515
1711545084406089500,14.83508935546875,0.5786895751953125,0.23090600967407227,0.9291588068008423
1711545084424972000,14.853971923828125,-0.29239320755004883,0.20047760009765625,0.6872808337211609
1711545084443854600,14.8728544921875,-0.6912097930908203,0.10358381271362305,0.4044645428657532
1711545084462737200,14.891737060546875,-0.5913114547729492,-0.07695198059082031,0.2042449712753296
1711545084481619700,14.91061962890625,-0.570213794708252,-0.13039016723632812,0.14932496845722198
1711545084500502300,14.929502197265625,-0.4853506088256836,0.03651618957519531,0.27815842628479004
1711545084519384800,14.948384765625,-0.0995473861694336,0.3281073570251465,0.4022786617279053
1711545084538267400,14.967267333984376,0.4160003662109375,0.3955726623535156,0.5421942472457886
1711545084557150200,14.986150146484375,0.5759992599487305,0.27654075622558594,0.43456459045410156
1711545084576032800,15.00503271484375,0.394132137298584,0.10555839538574219,0.3302489221096039
1711545084594915300,15.023915283203126,-0.10276508331298828,0.09642457962036133,0.2259581983089447
1711545084613798000,15.0427978515625,-0.5459465980529785,0.14359331130981445,0.21744269132614136
1711545084632680400,15.061680419921874,-0.8186025619506836,0.07730579376220703,0.22487272322177887
1711545084651563000,15.08056298828125,-0.955805778503418,-0.038990020751953125,0.1989046186208725
1711545084670445600,15.099445556640624,-1.0007143020629883,-0.15295124053955078,0.09129436314105988
1711545084689328000,15.118328125,-1.019317626953125,-0.09879398345947266,-0.05092272162437439
1711545084708210700,15.137210693359375,-0.7698135375976562,0.026416778564453125,-0.16997632384300232
1711545084727093200,15.15609326171875,-0.21427106857299805,0.07035017013549805,-0.2343740165233612
1711545084745975800,15.174975830078125,0.3338170051574707,-0.022222042083740234,-0.21894918382167816
1711545084764858400,15.1938583984375,0.41840267181396484,-0.023768901824951172,-0.25742796063423157
1711545084783741000,15.212740966796876,0.18683862686157227,0.07298755645751953,-0.26364290714263916
1711545084802623500,15.23162353515625,-0.3419957160949707,0.21977615356445312,-0.10299995541572571
1711545084821506000,15.250506103515624,-0.4866957664489746,0.42133188247680664,0.1104642003774643
1711545084840388600,15.269388671875,-0.16228389739990234,0.45435476303100586,0.3602983057498932
1711545084859271200,15.288271240234375,0.21474075317382812,0.3605222702026367,0.4702792763710022
1711545084878153700,15.30715380859375,0.35016441345214844,0.22581052780151367,0.6300532221794128
1711545084897036300,15.326036376953125,0.29696226119995117,0.15094518661499023,0.747582733631134
1711545084915918800,15.3449189453125,-0.031407833099365234,0.016405582427978516,0.7936835289001465
1711545084934801400,15.363801513671875,-0.32213258743286133,-0.13933706283569336,0.7715792059898376
1711545084953684000,15.38268408203125,-0.40590572357177734,-0.2897472381591797,0.9189748167991638
1711545084972566500,15.40156640625,-0.6105494499206543,-0.31446218490600586,1.2072620391845703
1711545084991449000,15.420448974609375,-0.9628853797912598,-0.2849884033203125,1.4138129949569702
1711545085010331600,15.43933154296875,-0.9973659515380859,-0.3639841079711914,1.330679178237915
1711545085029214200,15.458214111328125,-1.2811808586120605,-0.4883236885070801,0.9002000093460083
1711545085048096800,15.4770966796875,-1.891850471496582,-0.05256223678588867,0.4343196749687195
1711545085066979300,15.495979248046876,-1.8311357498168945,0.7658944129943848,0.5739243030548096
1711545085085862000,15.51486181640625,-0.7667608261108398,1.614720344543457,1.3831963539123535
1711545085104744400,15.533744384765624,0.8662877082824707,2.291388988494873,2.2454516887664795
1711545085123627000,15.552626953125,2.8633155822753906,2.5338644981384277,2.825528860092163
1711545085142509600,15.571509521484375,3.727688789367676,1.9738197326660156,2.6244592666625977
1711545085161392000,15.59039208984375,2.330995559692383,0.8292393684387207,1.5584442615509033
1711545085180274700,15.609274658203125,-0.006252288818359375,-0.016108989715576172,0.4468589425086975
1711545085199157200,15.6281572265625,-1.7798714637756348,-0.49955320358276367,-0.17485514283180237
1711545085218039800,15.647039794921875,-2.6532106399536133,-0.8327164649963379,-0.3599061667919159
1711545085236922400,15.66592236328125,-2.886622428894043,-1.003873348236084,-0.3024009168148041
1711545085255805000,15.684804931640626,-2.7159862518310547,-0.9601736068725586,-0.4249419569969177
1711545085274687500,15.7036875,-2.650740146636963,-0.653933048248291,-0.6991041898727417
1711545085293570000,15.722570068359374,-2.5168652534484863,-0.07070064544677734,-0.573381781578064
1711545085312452600,15.74145263671875,-1.895216941833496,0.5924177169799805,0.10535339266061783
1711545085331335200,15.760335205078125,-0.9292521476745605,1.1270875930786133,0.6939817070960999
1711545085350217700,15.7792177734375,0.014684677124023438,1.3368935585021973,0.817915678024292
1711545085369100300,15.798100341796875,0.8393940925598145,1.4484601020812988,1.0439956188201904
1711545085387982800,15.81698291015625,1.3466567993164062,1.5193157196044922,1.4048891067504883
1711545085406865400,15.835865478515625,1.5523133277893066,1.2631950378417969,1.3098489046096802
1711545085425748000,15.854748046875,0.9333152770996094,0.6306748390197754,0.7458722591400146
1711545085444630500,15.873630615234376,-0.04183769226074219,0.10440254211425781,0.28394317626953125
1711545085463513000,15.89251318359375,-0.9931306838989258,0.08097314834594727,0.2387300580739975
1711545085482395600,15.911395751953124,-1.47837495803833,0.3433065414428711,0.46388110518455505
1711545085501278200,15.9302783203125,-1.879953384399414,0.6391806602478027,0.8428826332092285
1711545085520160800,15.949160888671875,-2.052591323852539,0.8358979225158691,1.1534676551818848
1711545085539043300,15.968043212890626,-1.6312274932861328,0.9334893226623535,1.2834728956222534
1711545085557926000,15.98692578125,-0.6255197525024414,1.0828990936279297,1.0074353218078613
1711545085576808400,16.005808349609374,0.3728146553039551,1.0768609046936035,0.612700879573822
1711545085595691000,16.02469091796875,0.964777946472168,0.8671622276306152,0.1144004613161087
1711545085614573600,16.043573486328125,0.6670103073120117,0.8531274795532227,-0.2094806283712387
1711545085633456000,16.0624560546875,-0.9869318008422852,1.552283763885498,0.09271053969860077
1711545085652338700,16.081338623046875,-2.160309314727783,2.524965763092041,0.6203938722610474
1711545085671221200,16.10022119140625,-0.12358999252319336,2.9205236434936523,1.114315152168274
1711545085690103800,16.119103759765625,2.9221091270446777,2.365177631378174,1.2236677408218384
1711545085708986400,16.137986328125,5.1963958740234375,1.5442957878112793,0.23189839720726013
1711545085727869000,16.156868896484376,6.1945719718933105,1.0184555053710938,-0.9006068110466003
1711545085746751200,16.175751220703123,5.559473514556885,0.9079432487487793,-0.3312773108482361
1711545085765633800,16.1946337890625,3.58282470703125,1.0614509582519531,1.223548412322998
1711545085784516400,16.213516357421874,1.50169038772583,0.5214958190917969,2.050969123840332
1711545085803399000,16.23239892578125,-0.5111145973205566,-0.6556921005249023,2.1438145637512207
1711545085822281500,16.251281494140624,-2.120737075805664,-1.9290494918823242,1.7032924890518188
1711545085841164000,16.2701640625,-3.201352596282959,-3.1323156356811523,0.8737218976020813
1711545085860046600,16.289046630859374,-4.006445407867432,-3.722538471221924,0.0008876621723175049
1711545085878929200,16.30792919921875,-4.276277542114258,-3.809126615524292,-0.9284526109695435
1711545085897811700,16.326811767578125,-4.6702470779418945,-3.612156629562378,-1.364676833152771
1711545085916694300,16.3456943359375,-3.7099926471710205,-2.8378448486328125,-1.4278846979141235
1711545085935576800,16.364576904296875,-2.1865382194519043,-1.5777802467346191,-2.0199007987976074
1711545085954459400,16.38345947265625,-0.374295711517334,-0.46701669692993164,-2.464142084121704
1711545085973342000,16.402342041015626,1.6201882362365723,0.08237218856811523,-2.233778476715088
1711545085992224300,16.421224365234377,2.6081037521362305,0.5968589782714844,-1.6925458908081055
1711545086011106800,16.44010693359375,2.5384716987609863,0.7326464653015137,-0.9999783039093018
1711545086029989400,16.4589892578125,1.5189428329467773,0.6829805374145508,-0.1964239478111267
1711545086048872000,16.477871826171874,0.29854536056518555,0.4407229423522949,0.5522315502166748
1711545086067754500,16.49675439453125,-0.8604779243469238,0.10914850234985352,1.1646525859832764
1711545086086637000,16.515636962890625,-1.6738953590393066,-0.054720401763916016,1.4362757205963135
1711545086105519600,16.53451953125,-1.9385442733764648,-0.06527471542358398,1.6163580417633057
1711545086124402200,16.553402099609375,-2.013007164001465,-0.12269830703735352,1.5550676584243774
1711545086143284700,16.57228466796875,-2.274367332458496,-0.615227222442627,1.312373399734497
1711545086162167300,16.591167236328126,-1.5056676864624023,-0.12172794342041016,0.6336662769317627
1711545086181049900,16.6100498046875,-2.4205822944641113,-0.26801586151123047,0.1520417332649231
1711545086199932400,16.628932373046876,-1.9216461181640625,0.7592649459838867,0.15987789630889893
1711545086218814700,16.647814697265623,-0.1302332878112793,1.7605242729187012,-1.4061408042907715
1711545086237697300,16.666697265625,0.5660791397094727,2.3701000213623047,-1.8692333698272705
1711545086256579800,16.685579833984374,1.2115154266357422,2.1899638175964355,-1.3909034729003906
1711545086275462400,16.70446240234375,1.646252155303955,2.251805305480957,-1.3551287651062012
1711545086294345000,16.723344970703124,2.2762250900268555,2.0188374519348145,-1.5172209739685059
1711545086313227500,16.7422275390625,3.5347094535827637,1.245509147644043,-1.8995682001113892
1711545086332110000,16.761110107421874,4.129433631896973,0.7298674583435059,-2.272561550140381
1711545086350992400,16.779992431640625,3.545705795288086,0.8974652290344238,-2.007284641265869
1711545086369875000,16.798875,1.4504799842834473,1.6897454261779785,-1.0077791213989258
1711545086388757500,16.817757568359376,0.3682107925415039,2.469919204711914,-0.005313843488693237
1711545086407640000,16.83664013671875,1.4566760063171387,2.566102981567383,0.7506200075149536
1711545086426522600,16.855522705078126,2.740786075592041,2.0012874603271484,1.5450485944747925
1711545086445405200,16.8744052734375,3.3878092765808105,0.6478338241577148,2.0353097915649414
1711545086464287700,16.893287841796877,3.637185573577881,-1.2349224090576172,1.7918145656585693
1711545086483170300,16.91217041015625,2.059947967529297,-2.7454419136047363,1.069801926612854
1711545086502052900,16.931052978515623,-0.718653678894043,-3.5778021812438965,0.40208348631858826
1711545086520935200,16.94993505859375,-2.8400497436523438,-3.9958486557006836,0.4871944785118103
1711545086539817700,16.968817626953125,-4.382760047912598,-3.649934768676758,0.7347398996353149
1711545086558700300,16.9877001953125,-4.884862899780273,-2.5563721656799316,0.1439647674560547
1711545086577582800,17.006582763671876,-3.943619728088379,-1.1489777565002441,-1.7223316431045532
1711545086596465400,17.02546533203125,-2.263131618499756,-0.17014026641845703,-2.6355607509613037
1711545086615348000,17.044347900390626,-0.6107673645019531,0.0775146484375,-1.8201193809509277
1711545086634230500,17.06323046875,1.1656813621520996,-0.2166457176208496,-0.5881106853485107
1711545086653112800,17.08211279296875,2.189541816711426,-0.6565465927124023,0.06255222856998444
1711545086671995400,17.100995361328124,1.118037223815918,-0.8163223266601562,0.29481878876686096
1711545086690878000,17.1198779296875,-1.3566045761108398,-0.8809714317321777,-0.10940685868263245
1711545086709760500,17.138760498046874,-3.0486974716186523,-1.0393791198730469,-0.23260679841041565
1711545086728643000,17.15764306640625,-3.9683055877685547,-1.1315059661865234,-0.5085289478302002
1711545086747525600,17.176525634765625,-3.8811211585998535,-1.1400165557861328,-1.0939059257507324
1711545086766408200,17.195408203125,-2.9808807373046875,-1.193190574645996,-1.427731990814209
1711545086785290500,17.21429052734375,-1.8144545555114746,-0.9552717208862305,-0.9531679749488831
1711545086804173000,17.233173095703126,-0.542273998260498,-0.4311952590942383,0.11324748396873474
1711545086823055600,17.2520556640625,0.896632194519043,0.057656288146972656,1.2419873476028442
1711545086841938200,17.270938232421877,1.504739761352539,0.4354057312011719,2.204385280609131
1711545086860820700,17.28982080078125,0.7556061744689941,0.7484622001647949,2.293121814727783
1711545086879703300,17.308703369140623,-0.26648902893066406,1.1184020042419434,1.7172362804412842
1711545086898585600,17.327585693359374,-0.40530967712402344,1.1113338470458984,1.2920080423355103
1711545086917468200,17.34646826171875,0.5812973976135254,1.0453991889953613,0.9654293656349182
1711545086936350700,17.365350830078125,2.292938709259033,0.9526410102844238,0.5619696378707886
1711545086955233300,17.3842333984375,3.9091992378234863,1.070796012878418,-0.1382656693458557
1711545086974115800,17.40311572265625,2.497865676879883,2.303514003753662,-0.701370894908905
1711545086992998400,17.421998291015626,-0.2932724952697754,4.035778522491455,-0.8480957746505737
1711545087011880700,17.440880615234374,-0.8405508995056152,4.938808441162109,-0.09880417585372925
1711545087030763300,17.45976318359375,1.3542537689208984,4.392979145050049,0.8280894756317139
1711545087049645800,17.478645751953124,4.313224792480469,2.9330978393554688,0.6791030168533325
1711545087068528400,17.4975283203125,6.856568813323975,0.7025761604309082,-0.2008858025074005
1711545087087411000,17.516410888671874,6.302643299102783,-1.8835787773132324,-0.8154144287109375
1711545087106293200,17.535293212890625,3.2852964401245117,-3.5219526290893555,-1.3416756391525269
1711545087125175800,17.55417578125,0.11161470413208008,-3.975991725921631,-1.405571460723877
1711545087144058400,17.573058349609376,-2.6518006324768066,-3.8117599487304688,-0.8013665080070496
1711545087162941000,17.59194091796875,-4.768808364868164,-3.258361577987671,-0.4743040204048157
1711545087181823500,17.610823486328126,-5.824591636657715,-2.7187509536743164,-1.0142697095870972
1711545087200705800,17.629705810546874,-5.5286149978637695,-2.3564376831054688,-1.616823434829712
1711545087219588400,17.64858837890625,-3.715193748474121,-1.9661445617675781,-1.72389554977417
1711545087238471000,17.667470947265624,-1.680981159210205,-1.464838981628418,-1.2973079681396484
1711545087257353500,17.686353515625,-0.10959768295288086,-0.8177981376647949,-0.9016924500465393
1711545087276236000,17.705236083984374,0.9272017478942871,-0.535578727722168,-0.5190688967704773
1711545087295118300,17.724118408203125,1.7247991561889648,-0.36638927459716797,0.213617742061615
1711545087314001000,17.7430009765625,1.9996733665466309,-0.1058492660522461,0.8610566854476929
1711545087332883500,17.761883544921876,1.086076259613037,0.17354726791381836,1.2140032052993774
1711545087351766000,17.78076611328125,-0.21522855758666992,0.044704437255859375,1.0090303421020508
1711545087370648300,17.7996484375,-1.2424068450927734,-0.41872310638427734,0.5436277389526367
1711545087389531000,17.81853076171875,-1.773604393005371,-0.8313674926757812,0.09738212823867798
1711545087408413400,17.837413330078125,-1.978276252746582,-0.9845800399780273,-0.36823737621307373
1711545087427296000,17.8562958984375,-1.7123565673828125,-0.9216065406799316,-0.9119362235069275
1711545087446178600,17.875178466796875,-1.3096423149108887,-0.6924600601196289,-1.1036492586135864
1711545087465061000,17.89406103515625,-0.791020393371582,-0.1549210548400879,-0.78501296043396
1711545087483943400,17.912943359375,0.1337900161743164,0.4650130271911621,-0.040293991565704346
1711545087502826000,17.931825927734376,0.9734563827514648,0.7834568023681641,0.5359131097793579
1711545087521708500,17.95070849609375,0.5048971176147461,0.9170351028442383,0.49412214756011963
1711545087540591000,17.969591064453127,-0.5623626708984375,1.0487103462219238,-0.21351492404937744
1711545087559473400,17.988473388671874,-0.39601659774780273,1.2921533584594727,-0.9163793921470642
1711545087578356000,18.00735595703125,0.6075558662414551,1.8924565315246582,-1.4402313232421875
1711545087597238500,18.026238525390625,2.475167751312256,2.726006507873535,-1.507539987564087
1711545087616121000,18.04512109375,4.140524864196777,3.284205913543701,-0.6016188859939575
1711545087635003400,18.06400341796875,5.393675327301025,3.5212783813476562,0.5867995619773865
1711545087653886000,18.082885986328126,5.593898296356201,3.3296751976013184,1.2664512395858765
1711545087672768500,18.1017685546875,4.927424907684326,2.8890695571899414,1.4243450164794922
1711545087691651000,18.120651123046876,4.477436542510986,1.680405616760254,1.648497223854065
1711545087710533400,18.139533447265624,4.248167037963867,-0.3887596130371094,1.8581162691116333
1711545087729416000,18.158416015625,2.7152504920959473,-2.336575508117676,1.6232322454452515
1711545087748298500,18.177298583984374,-0.18416500091552734,-3.679938554763794,1.5033656358718872
1711545087767181000,18.19618115234375,-2.8356637954711914,-4.484078884124756,1.8151397705078125
1711545087786063600,18.215063720703125,-4.161933898925781,-4.970114707946777,2.3829727172851562
1711545087804946000,18.23394580078125,-4.646026611328125,-4.749211311340332,2.5297772884368896
1711545087823828500,18.252828369140627,-4.9035186767578125,-3.506786584854126,1.2508466243743896
1711545087842711000,18.2717109375,-4.9890828132629395,-1.163771152496338,-0.9580789804458618
1711545087861593300,18.29059326171875,-4.107211112976074,0.7307906150817871,-1.5825896263122559
1711545087880476000,18.309475830078124,-1.5855393409729004,1.1875529289245605,0.11146524548530579
1711545087899358500,18.3283583984375,2.087939739227295,0.6546950340270996,1.537672996520996
1711545087918241000,18.347240966796875,4.798280715942383,-0.11504364013671875,1.6485543251037598
1711545087937123300,18.366123291015626,4.412793159484863,-0.6238369941711426,0.9071458578109741
1711545087956006000,18.385005859375,0.9701881408691406,-0.9806032180786133,0.045972615480422974
1711545087974888400,18.403888427734376,-1.6366734504699707,-1.2191104888916016,-0.2168949842453003
1711545087993771000,18.42277099609375,-3.0546045303344727,-1.320547103881836,-0.30471229553222656
1711545088012653300,18.4416533203125,-3.4432382583618164,-1.252612590789795,-0.37358659505844116
1711545088031535900,18.460535888671874,-3.3985698223114014,-0.9804978370666504,-0.18600261211395264
1711545088050418400,18.47941845703125,-2.6382293701171875,-0.6007604598999023,0.25628745555877686
1711545088069301000,18.498301025390624,-1.1771349906921387,-0.2568645477294922,0.7872232794761658
1711545088088183300,18.517183349609375,0.08785057067871094,-0.05134916305541992,1.5660910606384277
1711545088107065900,18.53606591796875,0.7865147590637207,0.41815948486328125,2.239339828491211
1711545088125948400,18.554948486328126,0.317352294921875,0.7204618453979492,2.3893349170684814
1711545088144830700,18.573830810546873,-0.4713902473449707,0.8694186210632324,1.805251121520996
1711545088163713300,18.59271337890625,-0.11363601684570312,0.6371612548828125,1.332125186920166
1711545088182595800,18.611595947265624,0.7522830963134766,0.5023221969604492,1.1867749691009521
1711545088201478400,18.630478515625,1.9366965293884277,0.6034984588623047,1.0796525478363037
1711545088220360700,18.649360595703126,3.2358641624450684,0.6826624870300293,0.6469417810440063
1711545088239243300,18.6682431640625,3.0265607833862305,1.3860316276550293,-0.03938406705856323
1711545088258125800,18.687125732421876,0.27037620544433594,3.0098328590393066,-0.13916528224945068
1711545088277008100,18.706008056640623,-0.8040766716003418,4.1601996421813965,0.5014352798461914
1711545088295890700,18.724890625,1.0306730270385742,4.241374492645264,1.6928980350494385
1711545088314773200,18.743773193359374,4.298957824707031,3.2808895111083984,2.3888697624206543
1711545088333655800,18.76265576171875,7.0627899169921875,1.2559590339660645,1.8513437509536743
1711545088352538000,18.7815380859375,7.217684745788574,-1.5806760787963867,0.7060403227806091
1711545088371420700,18.800420654296875,4.831456661224365,-3.870891571044922,-0.5317596197128296
1711545088390303200,18.81930322265625,0.6428899765014648,-4.685573577880859,-1.3346742391586304
1711545088409185500,18.838185546875,-2.757567882537842,-3.890373468399048,-1.417336106300354
1711545088428068000,18.857068115234377,-4.094759464263916,-2.269228458404541,-0.35267525911331177
1711545088446950700,18.87595068359375,-4.3112945556640625,-1.243812084197998,0.9506028890609741
1711545088465833000,18.8948330078125,-2.891507625579834,-1.2764592170715332,0.828677773475647
1711545088484715500,18.913715576171874,-0.997215747833252,-2.109328269958496,-0.5106903910636902
1711545088503598000,18.93259814453125,0.3667759895324707,-2.4316928386688232,-1.4716309309005737
1711545088522480600,18.951480712890625,1.5472660064697266,-2.3769466876983643,-1.231492519378662
1711545088541363000,18.970363037109376,2.3163022994995117,-2.1976637840270996,-0.0489996075630188
1711545088560245500,18.98924560546875,2.1950783729553223,-1.6081318855285645,1.087693214416504
1711545088579128000,19.008128173828126,0.8590178489685059,-1.0767202377319336,1.8971459865570068
1711545088598010400,19.02701025390625,-0.6355695724487305,-0.7229886054992676,2.473318576812744
1711545088616893000,19.045892822265625,-1.7827272415161133,-0.5676846504211426,2.6515707969665527
1711545088635775500,19.064775390625,-2.4159460067749023,-0.42136430740356445,2.1515278816223145
1711545088654658000,19.083657958984375,-2.4415712356567383,-0.41115236282348633,1.3447394371032715
1711545088673540400,19.102540283203126,-1.1214981079101562,-0.6879467964172363,0.6442969441413879
1711545088692423000,19.1214228515625,1.1182336807250977,-1.0595970153808594,0.3141297399997711
1711545088711305200,19.14030517578125,2.6330437660217285,-1.233208179473877,0.5004735589027405
1711545088730187800,19.159187744140624,2.1753149032592773,-1.0241527557373047,0.7444552183151245
1711545088749070300,19.1780703125,0.423490047454834,-0.4493865966796875,0.4479978382587433
1711545088767953000,19.196952880859374,-0.4417290687561035,-0.1759805679321289,0.10402679443359375
1711545088786835200,19.215835205078125,-0.3239321708679199,-0.34061098098754883,-0.07955968379974365
1711545088805717800,19.2347177734375,0.360379695892334,-0.6311893463134766,-0.5507172346115112
1711545088824600300,19.253600341796876,0.5630359649658203,-0.7429513931274414,-1.0355403423309326
1711545088843482600,19.272482666015627,0.814295768737793,-0.5512967109680176,-1.2909252643585205
1711545088862365200,19.291365234375,1.349905014038086,-0.31688499450683594,-0.9420946836471558
1711545088881247500,19.31024755859375,1.9519977569580078,-0.12770414352416992,-0.3031969666481018
1711545088900130000,19.329130126953125,2.116637706756592,-0.06560516357421875,0.03442227840423584
1711545088919012600,19.3480126953125,1.6544718742370605,-0.20050716400146484,0.3472408056259155
1711545088937895200,19.366895263671875,0.8652591705322266,-0.2501540184020996,0.27383899688720703
1711545088956777500,19.385777587890626,0.15542316436767578,-0.1902456283569336,-0.05394187569618225
1711545088975660000,19.404659912109373,-0.1077108383178711,-0.05382251739501953,-0.3395865559577942
1711545088994542300,19.423542236328124,-0.07206106185913086,0.07306337356567383,-0.6521443128585815
1711545089013425000,19.4424248046875,0.391937255859375,0.24519729614257812,-0.5327613949775696
1711545089032307500,19.461307373046875,0.32286500930786133,0.3721036911010742,-0.35744982957839966
1711545089051189800,19.480189697265626,0.5381951332092285,0.3024277687072754,-0.5797138214111328
1711545089070072300,19.499072265625,2.1345462799072266,-0.10288190841674805,-1.020347237586975
1711545089088955000,19.517954833984376,4.403104305267334,-0.4067511558532715,-0.8560953736305237
1711545089107837200,19.536837158203124,4.676786422729492,-0.3605165481567383,0.41815412044525146
1711545089126719700,19.5557197265625,2.917330741882324,0.07084226608276367,1.7678805589675903
1711545089145602300,19.574602294921874,1.3646926879882812,-0.09611988067626953,2.556734323501587
1711545089164484600,19.593484619140625,0.08536815643310547,-0.7817459106445312,2.815807819366455
1711545089183367200,19.6123671875,-0.9643306732177734,-1.3668060302734375,2.3861403465270996
1711545089202249700,19.631249755859375,-1.5761280059814453,-1.838860034942627,1.8952521085739136
1711545089221132000,19.650132080078127,-2.199604034423828,-2.0367350578308105,1.6656074523925781
1711545089240014600,19.6690146484375,-2.4084420204162598,-1.5455398559570312,1.210268497467041
1711545089258897200,19.687897216796873,-1.852186679840088,-0.6897821426391602,1.2049050331115723
1711545089277779500,19.706779541015624,-0.7080507278442383,-0.05699443817138672,1.373117208480835
1711545089296662000,19.725662109375,0.4314112663269043,0.33068275451660156,1.132771372795105
1711545089315544300,19.74454443359375,1.5397405624389648,0.39161014556884766,0.6983055472373962
1711545089334427000,19.763427001953126,2.2227182388305664,0.10681676864624023,0.13418371975421906
1711545089353309400,19.782309326171877,2.1192173957824707,-0.2536449432373047,-0.12696726620197296
1711545089372191700,19.801191650390624,1.2794976234436035,-0.5557665824890137,-0.07150666415691376
1711545089391074300,19.82007421875,0.4033970832824707,-0.7489457130432129,-0.22240272164344788
1711545089409956900,19.838956787109375,-0.07929134368896484,-0.7505273818969727,-0.3501976728439331
1711545089428839200,19.857839111328126,-0.39060068130493164,-0.6705422401428223,-0.07607917487621307
1711545089447721700,19.8767216796875,-0.4505753517150879,-0.5049614906311035,0.21106038987636566
1711545089466604300,19.895604248046876,-0.3572263717651367,-0.2447662353515625,0.46435922384262085
1711545089485486600,19.914486572265623,-0.4217391014099121,0.2075514793395996,0.7613446712493896
1711545089504369200,19.933369140625,-0.5970554351806641,0.6987810134887695,1.1319844722747803
1711545089523251500,19.95225146484375,-0.26521778106689453,0.6608610153198242,1.5287402868270874
1711545089542134000,19.971134033203125,0.6817822456359863,0.1930546760559082,1.5593037605285645
1711545089561016600,19.9900166015625,1.1540074348449707,-0.1664104461669922,1.2014145851135254
1711545089579899000,20.00889892578125,0.47913169860839844,-0.25154876708984375,0.792896032333374
1711545089598781400,20.027781494140626,-0.4492816925048828,-0.018682003021240234,0.40286511182785034
1711545089617663700,20.046663818359374,-0.8758101463317871,0.07340002059936523,0.10917459428310394
1711545089636546300,20.06554638671875,-1.2005424499511719,-0.008975982666015625,-0.1954643428325653
1711545089655428900,20.084428955078124,-1.2725558280944824,-0.06646537780761719,-0.5569134950637817
1711545089674311200,20.103311279296875,-0.9582862854003906,-0.15482234954833984,-0.9279229640960693
1711545089693193700,20.12219384765625,-0.10410547256469727,-0.3839426040649414,-1.3232872486114502
1711545089712076000,20.141075927734374,0.3189854621887207,-0.6849851608276367,-1.5134814977645874
1711545089730958600,20.15995849609375,0.8852953910827637,-0.953758716583252,-1.4945262670516968
1711545089749841200,20.178841064453124,1.264528751373291,-0.8431148529052734,-0.9700883626937866
1711545089768723500,20.197723388671875,1.1927170753479004,-0.26544952392578125,-0.237046480178833
1711545089787606000,20.21660595703125,0.5348482131958008,0.3278207778930664,0.3981034755706787
1711545089806488300,20.23548828125,-0.0648651123046875,0.645024299621582,0.7834120988845825
1711545089825371000,20.254370849609376,-0.3514561653137207,0.7614688873291016,0.9649088382720947
1711545089844253400,20.27325341796875,-0.6952409744262695,0.8537921905517578,0.8785851001739502
1711545089863135700,20.2921357421875,-1.459641456604004,1.0330958366394043,0.5867869853973389
1711545089882018300,20.311018310546874,-1.8054909706115723,1.0060267448425293,0.33091169595718384
1711545089900900900,20.32990087890625,-1.1012134552001953,0.6424322128295898,0.007752209901809692
1711545089919783200,20.348783203125,0.09507417678833008,-0.034432411193847656,-0.5246252417564392
1711545089938665700,20.367665771484376,0.33449649810791016,-0.577423095703125,-1.045278549194336
1711545089957548000,20.386548095703127,-0.015132427215576172,-0.7141342163085938,-1.6118748188018799
1711545089976430600,20.4054306640625,-0.3826413154602051,-0.5810761451721191,-1.874213695526123
1711545089995313200,20.424313232421873,-0.43695688247680664,-0.2946338653564453,-1.858349084854126
1711545090014195500,20.443195556640624,-0.00030803680419921875,-0.03593778610229492,-1.5050256252288818
1711545090033078000,20.462078125,0.508791446685791,0.17731380462646484,-0.9613049626350403
1711545090051960300,20.480960205078127,0.6901812553405762,0.35942935943603516,-0.5709008574485779
1711545090070843000,20.4998427734375,0.5355057716369629,0.4415717124938965,-0.26381397247314453
1711545090089725200,20.51872509765625,-0.0017147064208984375,0.4213590621948242,-0.03652837872505188
1711545090108607700,20.537607666015624,-0.47753477096557617,0.45532989501953125,0.15546762943267822
1711545090127490300,20.556490234375,-0.525421142578125,0.4225273132324219,0.30744418501853943
1711545090146372600,20.57537255859375,-0.30412864685058594,0.2854642868041992,0.3395554721355438
1711545090165255200,20.594255126953126,-0.41838741302490234,0.12084054946899414,0.26713648438453674
1711545090184137500,20.613137451171873,-0.6225576400756836,0.14156150817871094,0.21914967894554138
1711545090203020000,20.63202001953125,-0.5534868240356445,0.24654006958007812,0.3033125102519989
1711545090221902300,20.65090234375,-0.2439732551574707,0.2702822685241699,0.3786565959453583
1711545090240785000,20.669784912109375,0.0512852668762207,0.1818404197692871,0.29142335057258606
1711545090259667500,20.68866748046875,0.11283254623413086,0.11758232116699219,0.11048519611358643
1711545090278549800,20.7075498046875,-0.05953168869018555,0.06492805480957031,-0.028146684169769287
1711545090297432300,20.726432373046876,-0.07084178924560547,0.08834362030029297,-0.11114931106567383
1711545090316314600,20.745314697265623,-0.13729333877563477,0.03349924087524414,-0.17045754194259644
1711545090335197200,20.764197265625,-0.1073293685913086,-0.004331111907958984,-0.2020520716905594
1711545090354079500,20.78307958984375,-0.01280069351196289,0.060997962951660156,-0.16395992040634155
1711545090372962000,20.801962158203125,0.1784043312072754,0.19605064392089844,0.024221330881118774
1711545090391844600,20.8208447265625,0.3598155975341797,0.25464916229248047,0.20240724086761475
1711545090410727000,20.839726806640623,0.3197031021118164,0.25296688079833984,0.4184526205062866
1711545090429609500,20.858609375,-0.022057533264160156,0.25631141662597656,0.4923458993434906
1711545090448491800,20.87749169921875,-0.17951345443725586,0.2157149314880371,0.4076433777809143
1711545090467374300,20.896374267578125,-0.2540774345397949,0.1738286018371582,0.4242939054965973
1711545090486256600,20.915256591796876,-0.17558670043945312,0.1695098876953125,0.4262710213661194
1711545090505139200,20.93413916015625,-0.3358330726623535,0.056467533111572266,0.3232133984565735
1711545090524021500,20.953021484375,-0.4840879440307617,0.009871959686279297,0.2963442802429199
1711545090542904000,20.971904052734374,-0.39142274856567383,0.028668880462646484,0.37945836782455444
1711545090561786600,20.99078662109375,-0.23506784439086914,0.05279541015625,0.4313245713710785
1711545090580669000,21.0096689453125,-0.14095211029052734,0.006636142730712891,0.3954639136791229
1711545090599551500,21.028551513671875,-0.13022661209106445,-0.14604520797729492,0.06825914978981018
1711545090618433800,21.047433837890626,0.12128925323486328,-0.2668743133544922,-0.321449339389801
1711545090637316400,21.06631640625,0.08065032958984375,-0.28707170486450195,-0.28058281540870667
1711545090656198700,21.08519873046875,-0.012476921081542969,-0.08654069900512695,-0.17348766326904297
1711545090675081200,21.104081298828124,-0.16182470321655273,0.06399345397949219,-0.019827812910079956
1711545090693963800,21.1229638671875,-0.26857566833496094,0.17055511474609375,0.023191452026367188
1711545090712846000,21.14184619140625,-0.3540525436401367,0.18668413162231445,0.03114256262779236
1711545090731728600,21.160728759765625,-0.3213777542114258,0.1688060760498047,0.03187674283981323
1711545090750611000,21.17961083984375,-0.33486461639404297,0.11345100402832031,0.028026044368743896
1711545090769493500,21.198493408203124,-0.1681079864501953,0.10130023956298828,0.06953364610671997
1711545090788375800,21.217375732421875,0.07038402557373047,0.12698984146118164,0.16240301728248596
1711545090807258400,21.23625830078125,0.29010009765625,0.09113645553588867,0.1955973505973816
1711545090826140700,21.255140625,0.5253748893737793,-0.032279014587402344,0.370039165019989
1711545090845023200,21.274023193359376,0.5260000228881836,-0.15015172958374023,0.5957244038581848
1711545090863905500,21.292905517578124,0.41352272033691406,-0.13222360610961914,0.7265910506248474
1711545090882788000,21.3117880859375,0.1236715316772461,-0.09142637252807617,0.8790158033370972
1711545090901670700,21.330670654296874,-0.37312984466552734,-0.05559253692626953,1.0637990236282349
1711545090920553000,21.349552978515625,-0.5096311569213867,-0.14625787734985352,1.085052728652954
1711545090939435300,21.368435302734376,-0.31402015686035156,-0.30313777923583984,1.0712103843688965
1711545090958317800,21.38731787109375,-0.30936527252197266,-0.20055198669433594,1.1061937808990479
1711545090977200400,21.406200439453126,-0.79876708984375,0.15686893463134766,1.2233173847198486
1711545090996082700,21.425082763671874,-1.131657600402832,0.6086807250976562,1.4261305332183838
1711545091014965200,21.44396533203125,-0.3236517906188965,0.8464446067810059,1.8525712490081787
1711545091033847600,21.46284765625,1.0122671127319336,0.7330188751220703,2.1143131256103516
1711545091052730000,21.481730224609375,1.8251829147338867,0.39655351638793945,1.8312757015228271
1711545091071612400,21.5006123046875,1.866713523864746,-0.04189109802246094,1.2800589799880981
1711545091090495000,21.519494873046874,1.3894290924072266,-0.40446949005126953,0.8458887338638306
1711545091109377300,21.538377197265625,0.9859161376953125,-0.5336470603942871,0.6558523178100586
1711545091128259800,21.557259765625,0.48241424560546875,-0.33347368240356445,0.7745869159698486
1711545091147142100,21.57614208984375,0.03710746765136719,0.0010786056518554688,1.046618103981018
1711545091166024700,21.595024658203126,0.014722824096679688,0.14739990234375,1.2666572332382202
1711545091184907000,21.613906982421874,0.13550090789794922,0.0076313018798828125,1.3396871089935303
1711545091203789600,21.63278955078125,0.17679500579833984,-0.324063777923584,1.29412841796875
1711545091222672000,21.651671875,0.05466938018798828,-0.5423431396484375,1.291455626487732
1711545091241554400,21.670554443359375,-0.2728734016418457,-0.5068840980529785,1.4422917366027832
1711545091260436700,21.689436767578126,-0.24998855590820312,-0.4153718948364258,1.7283833026885986
1711545091279319300,21.7083193359375,-0.18789434432983398,-0.3446192741394043,2.1015818119049072
1711545091298201600,21.72720166015625,-0.27987003326416016,-0.30191802978515625,2.3449277877807617
1711545091317084200,21.746084228515624,-0.29793691635131836,-0.5337576866149902,2.4416821002960205
1711545091335966500,21.764966552734375,-0.6044840812683105,-0.7659387588500977,2.2567038536071777
1711545091354849000,21.78384912109375,-0.7574648857116699,-0.658543586730957,1.886723279953003
1711545091373731300,21.8027314453125,-0.610356330871582,-0.12361621856689453,1.9224321842193604
1711545091392614000,21.82161376953125,-0.12884283065795898,0.31450462341308594,2.1781630516052246
1711545091411496200,21.84049609375,0.7687616348266602,0.2373647689819336,2.051517963409424
1711545091430378800,21.859378662109375,1.2091116905212402,-0.0033440589904785156,1.7566299438476562
1711545091449261000,21.878260986328126,0.554384708404541,0.02993631362915039,1.511345624923706
1711545091468143600,21.8971435546875,-0.2715268135070801,0.15350055694580078,1.1769025325775146
1711545091487026200,21.916026123046876,-0.18561935424804688,-0.10180377960205078,0.8232463598251343
1711545091505908500,21.934908447265624,0.817657470703125,-0.731348991394043,0.257061243057251
1711545091524790800,21.953790771484375,1.4412641525268555,-1.4162111282348633,-0.2847839593887329
1711545091543673300,21.97267333984375,1.0018644332885742,-1.7378153800964355,-0.835734486579895
1711545091562555600,21.9915556640625,-0.03816080093383789,-1.4431443214416504,-1.578660249710083
1711545091581438200,22.010438232421876,-0.4180164337158203,-0.8640322685241699,-2.0380992889404297
1711545091600320500,22.029320556640624,0.08216428756713867,-0.3533501625061035,-1.702164888381958
1711545091619203000,22.048203125,1.2245898246765137,0.012150764465332031,-1.2550063133239746
1711545091638085400,22.06708544921875,2.2707133293151855,0.3699226379394531,-0.8562374711036682
1711545091656968000,22.085968017578125,2.6366820335388184,0.40521764755249023,-0.6996285915374756
1711545091675850200,22.104850341796876,2.2169718742370605,0.0017728805541992188,-1.1561894416809082
1711545091694732800,22.12373291015625,2.1665916442871094,-0.7292947769165039,-1.799518346786499
1711545091713615000,22.142614990234375,2.1375932693481445,-1.411637783050537,-2.1296095848083496
1711545091732497700,22.16149755859375,1.0295190811157227,-1.6945257186889648,-2.200330972671509
1711545091751380000,22.1803798828125,-0.6574563980102539,-1.6222038269042969,-1.8176629543304443
1711545091770262500,22.199262451171876,-2.3705897331237793,-1.3506011962890625,-0.9935911893844604
1711545091789144800,22.218144775390623,-3.4782605171203613,-0.8194923400878906,-0.4492660164833069
1711545091808027400,22.23702734375,-3.8446507453918457,-0.49730396270751953,-0.2377694845199585
1711545091826909700,22.25590966796875,-3.9115850925445557,-0.7023324966430664,-0.27803951501846313
1711545091845792300,22.274792236328125,-3.3921594619750977,-0.9558653831481934,-0.9491817951202393
1711545091864674600,22.293674560546876,-2.1510391235351562,-1.085157871246338,-1.7216994762420654
1711545091883557000,22.31255712890625,-0.8780984878540039,-0.7955479621887207,-2.0933213233947754
1711545091902439400,22.331439453125,0.21640348434448242,-0.3809680938720703,-2.174830436706543
1711545091921322000,22.350322021484374,0.7868132591247559,0.10395431518554688,-1.9187477827072144
1711545091940204300,22.369204345703125,1.3260021209716797,0.656013011932373,-1.609688639640808
1711545091959086800,22.3880869140625,2.0965919494628906,1.2532296180725098,-1.092153787612915
1711545091977969200,22.40696923828125,2.6443424224853516,1.4700274467468262,-0.6634423732757568
1711545091996851500,22.4258515625,2.567789077758789,1.4416227340698242,-0.3838323950767517
1711545092015734000,22.444734130859374,1.7597341537475586,1.303858757019043,-0.21123923361301422
1711545092034616300,22.4636162109375,0.7123966217041016,1.1209006309509277,-0.2797488272190094
1711545092053499000,22.482498779296876,-0.4505791664123535,0.993779182434082,-0.5211831331253052
1711545092072381200,22.501381103515627,-1.412710189819336,1.0309133529663086,-0.6318084001541138
1711545092091263700,22.520263671875,-1.9796690940856934,1.0317296981811523,-0.6777522563934326
1711545092110146000,22.53914599609375,-2.125335216522217,1.0755681991577148,-0.962553858757019
1711545092129028600,22.558028564453124,-1.173534870147705,1.1576766967773438,-1.530195951461792
1711545092147911000,22.576910888671875,0.561945915222168,1.332775592803955,-1.905739426612854
1711545092166793500,22.59579345703125,2.3948802947998047,1.706106185913086,-1.9562315940856934
1711545092185675800,22.61467578125,3.002274513244629,2.1300573348999023,-1.4921374320983887
1711545092204558300,22.633558349609373,2.1121368408203125,2.6255249977111816,-1.0046417713165283
1711545092223440600,22.652440673828124,2.521601676940918,2.6766419410705566,-0.6711224317550659
1711545092242323200,22.6713232421875,3.6736974716186523,2.4061684608459473,-0.11195975542068481
1711545092261205500,22.69020556640625,4.291717529296875,1.6293325424194336,0.32838165760040283
1711545092280087800,22.709087890625,4.884527206420898,0.01197957992553711,0.45692914724349976
1711545092298970400,22.727970458984377,4.280831336975098,-1.749269723892212,0.20853745937347412
1711545092317852700,22.746852783203124,2.1832618713378906,-2.9381375312805176,-0.08685410022735596
1711545092336735200,22.7657353515625,-0.4636650085449219,-3.728872776031494,0.0021422207355499268
1711545092355617500,22.784617431640626,-2.551469326019287,-4.129701137542725,0.6021885871887207
1711545092374500000,22.8035,-3.419663429260254,-4.134519577026367,1.361497163772583
1711545092393382400,22.82238232421875,-3.7533814907073975,-3.504718065261841,1.4894286394119263
1711545092412265000,22.841264892578124,-4.707217216491699,-1.701280117034912,0.3440755009651184
1711545092431147300,22.860147216796875,-5.310707092285156,0.5381321907043457,-0.6423212289810181
1711545092450029600,22.879029541015626,-3.680344581604004,1.5407781600952148,-0.19970127940177917
1711545092468912000,22.897912109375,-0.5873727798461914,1.1459641456604004,0.6938108205795288
1711545092487794400,22.91679443359375,2.460786819458008,0.3869662284851074,1.0106903314590454
1711545092506677000,22.935677001953124,3.6122078895568848,-0.4819207191467285,0.5064547061920166
1711545092525559300,22.954559326171875,2.0347275733947754,-1.2643017768859863,-0.04069337248802185
1711545092544441900,22.97344189453125,-0.7321672439575195,-1.4088654518127441,-0.4329456090927124
1711545092563324200,22.99232421875,-2.438781261444092,-1.2932720184326172,-0.31333428621292114
1711545092582206500,23.01120654296875,-3.182537078857422,-1.2116012573242188,-0.16275575757026672
1711545092601089000,23.030089111328124,-3.5262160301208496,-1.0090408325195312,-0.19331985712051392
1711545092619971300,23.048971435546875,-3.6386256217956543,-0.6865200996398926,-0.3561807870864868
1711545092638854000,23.06785400390625,-3.2296032905578613,-0.3578305244445801,-0.45280343294143677
1711545092657736200,23.086736083984373,-1.7241668701171875,-0.027124404907226562,-0.2548706531524658
1711545092676618800,23.10561865234375,0.2536177635192871,0.34061145782470703,0.31198740005493164
1711545092695501000,23.1245009765625,2.093857765197754,0.7352595329284668,0.9432427287101746
1711545092714383600,23.143383544921875,2.8761792182922363,0.9932894706726074,1.5510058403015137
1711545092733266000,23.162265869140626,2.3703246116638184,0.8404026031494141,1.6212271451950073
1711545092752148200,23.181148193359373,1.4785676002502441,0.42640113830566406,1.0936864614486694
1711545092771030800,23.20003076171875,1.6375484466552734,0.1135101318359375,0.6081435084342957
1711545092789913000,23.2189130859375,2.952188491821289,0.10017108917236328,0.427040696144104
1711545092808795600,23.237795654296875,3.4819045066833496,0.6995072364807129,-0.1005655825138092
1711545092827678000,23.256677978515626,1.7435011863708496,2.7103872299194336,-0.4703490436077118
1711545092846560300,23.275560302734377,0.9209485054016113,4.408587455749512,0.38227471709251404
1711545092865442800,23.29444287109375,1.8885078430175781,4.79088020324707,2.6781582832336426
1711545092884325000,23.3133251953125,4.650969505310059,3.8388919830322266,3.299360990524292
1711545092903207700,23.332207763671875,7.893563747406006,1.3758635520935059,2.095790147781372
