time,seconds_elapsed,z,y,x
1711545069696592100,0.125592041015625,0.007101302966475487,-0.04214967042207718,0.024434590712189674
1711545069715474400,0.144474365234375,0.011377356946468353,-0.023823726922273636,0.03176496922969818
1711545069734356700,0.163356689453125,0.01259908638894558,-0.023823726922273636,0.014660755172371864
1711545069753239000,0.182239013671875,0.018096869811415672,-0.0256563201546669,0.0054977829568088055
1711545069772121600,0.20112158203125,0.00954476185142994,-0.046425722539424896,0.014049889519810677
1711545069791004000,0.22000390625,-0.018555017188191414,-0.023212861269712448,0.01893680728971958
1711545069809886200,0.23888623046875,-0.037491824477910995,0.01954767294228077,0.006108647678047419
1711545069828768500,0.2577685546875,-0.03260490670800209,0.036651886999607086,-0.007330377586185932
1711545069847650800,0.27665087890625,-0.0319940410554409,0.004886918235570192,-0.007941242307424545
1711545069866533400,0.295533447265625,-0.03993528336286545,-0.028099779039621353,0
1711545069885415700,0.314415771484375,-0.03260490670800209,-0.020769402384757996,0.002443459117785096
1711545069904298000,0.333298095703125,-0.00755945174023509,-0.01893680728971958,-0.009773836471140385
1711545069923180300,0.35218017578125,0.006490438245236874,0.009773836471140385,-0.017104214057326317
1711545069942062600,0.3710625,0.004046979360282421,0.006719512399286032,-0.010995565913617611
1711545069960945200,0.389945068359375,0.0016035200096666813,-0.02932151034474373,0.017104214057326317
1711545069979827500,0.408827392578125,-0.002061668550595641,-0.03787361457943916,0.05253437161445618
1711545069998709800,0.427709716796875,-0.013057234697043896,0.0030543238390237093,0.07452550530433655
1711545070017592000,0.446592041015625,-0.028328854590654373,0.012217295356094837,0.056199558079242706
1711545070036474600,0.465474609375,-0.017944153398275375,-0.021991131827235222,0.01893680728971958
1711545070055357000,0.48435693359375,0.0009926552884280682,-0.0769689604640007,-0.001832594396546483
1711545070074239200,0.5032392578125,-0.003894262947142124,-0.03848448023200035,0.007941242307424545
1711545070093121500,0.52212158203125,-0.023441936820745468,0.02626718580722809,0.0360410213470459
1711545070112003800,0.54100390625,-0.04482220485806465,0.01893680728971958,0.05742128938436508
1711545070130886400,0.559886474609375,-0.062537282705307,0.03848448023200035,0.06536252796649933
1711545070149768700,0.578768798828125,-0.09246965497732162,-0.043371398001909256,0.03909534588456154
1711545070168651000,0.597651123046875,-0.1443931609392166,-0.10751219838857651,-0.003665188793092966
1711545070187533300,0.616533203125,-0.19448406994342804,-0.13561198115348816,-0.05070177838206291
1711545070206416000,0.635415771484375,-0.24335326254367828,-0.185092031955719,-0.08857539296150208
1711545070225298200,0.654298095703125,-0.2580140233039856,-0.17043127119541168,-0.1233946830034256
1711545070244180500,0.673180419921875,-0.25618141889572144,-0.21441353857517242,-0.12400554865598679
1711545070263062800,0.692062744140625,-0.27084216475486755,-0.3439168632030487,-0.12034036219120026
1711545070281945300,0.7109453125,-0.27511823177337646,-0.360410213470459,-0.1288924664258957
1711545070300827600,0.72982763671875,-0.24640758335590363,-0.09040798991918564,-0.1490510106086731
1711545070319710000,0.7487099609375,-0.1969275325536728,0.18325942754745483,-0.17837251722812653
1711545070338592300,0.76759228515625,-0.13706278800964355,0.24740023910999298,-0.19120067358016968
1711545070357474800,0.786474853515625,-0.093691386282444,0.2761108875274658,-0.17531819641590118
1711545070376357000,0.805357177734375,-0.05520690605044365,0.29993459582328796,-0.14721840620040894
1711545070395239400,0.824239501953125,-0.015500693581998348,0.2522871494293213,-0.07941242307424545
1711545070414121700,0.843121826171875,-0.044211339205503464,0.1178968995809555,-0.014660755172371864
1711545070433004300,0.86200439453125,-0.10102175921201706,0.07819069176912308,0.008552107028663158
1711545070451886600,0.880886474609375,-0.10163262486457825,0.06414080411195755,-0.001221729558892548
1711545070470769000,0.899768798828125,-0.05887209251523018,0.07269290834665298,-0.01588248461484909
1711545070489651500,0.9186513671875,-0.050319984555244446,0.19364413619041443,-0.05864302068948746
1711545070508533800,0.93753369140625,-0.06925679743289948,0.38240134716033936,-0.14233149588108063
1711545070527416000,0.956416015625,-0.043600473552942276,0.48991355299949646,-0.2412915825843811
1711545070546298400,0.97529833984375,0.006490438245236874,0.4618137776851654,-0.25961753726005554
1711545070565181000,0.994180908203125,0.03153589367866516,0.4062250852584839,-0.21380266547203064
1711545070584063200,1.013063232421875,0.04192059487104416,0.3500255048274994,-0.13133592903614044
1711545070602945500,1.031945556640625,0.018096869811415672,0.32620179653167725,-0.0616973415017128
1711545070621828000,1.050828125,0.02237292192876339,0.34208428859710693,-0.0720820426940918
1711545070640710400,1.06971044921875,0.0907897800207138,0.3597993552684784,-0.08368847519159317
1711545070659592700,1.0885927734375,0.06391172856092453,0.26878049969673157,-0.0824667438864708
1711545070678475300,1.107475341796875,0.052916161715984344,0.2669478952884674,-0.0616973415017128
1711545070697357600,1.126357666015625,0.059024810791015625,0.23212862014770508,-0.031154103577136993
1711545070716240000,1.145239990234375,0.070631243288517,0.20708316564559937,-0.021380268037319183
1711545070735122200,1.1641220703125,0.03886627033352852,0.1288924664258957,-0.07757982611656189
1711545070754004700,1.183004638671875,0.0016035200096666813,0.07941242307424545,-0.09834922850131989
1711545070772887000,1.201886962890625,-0.001450803829357028,0.047036588191986084,-0.08063415437936783
1711545070791769300,1.220769287109375,0.013820815831422806,0.017104214057326317,-0.04153880476951599
1711545070810652000,1.23965185546875,0.022983787581324577,-0.0054977829568088055,-0.023212861269712448
1711545070829534200,1.2585341796875,-0.017944153398275375,-0.017104214057326317,-0.08124501258134842
1711545070848416500,1.27741650390625,-0.015500693581998348,0.01649334840476513,-0.17898337543010712
1711545070867298800,1.296298828125,0.0034361144062131643,0.12644900381565094,-0.20158538222312927
1711545070886181400,1.315181396484375,0.00954476185142994,0.2205221801996231,-0.17837251722812653
1711545070905063700,1.334063720703125,0.04069886729121208,0.2632827162742615,-0.14721840620040894
1711545070923946200,1.3529462890625,0.026038112118840218,0.2571740746498108,-0.15638138353824615
1711545070942828500,1.37182861328125,0.05169443041086197,0.347582072019577,-0.143553227186203
1711545070961710800,1.3907109375,0.07673988491296768,0.41783151030540466,-0.14049890637397766
1711545070980593400,1.409593505859375,0.07673988491296768,0.4257727563381195,-0.14233149588108063
1711545070999475700,1.428475830078125,0.059635672718286514,0.2993237376213074,-0.1233946830034256
1711545071018358000,1.44735791015625,0.01626427471637726,0.13927717506885529,-0.10018182545900345
1711545071037240300,1.466240234375,0.030925029888749123,0.030543239787220955,-0.09590577334165573
1711545071056123000,1.485122802734375,0.0034361144062131643,-0.01649334840476513,-0.1130099818110466
1711545071075005200,1.504005126953125,-0.01000291109085083,-0.018325943499803543,-0.1081230640411377
1711545071093887700,1.5228876953125,-0.011224640533328056,-0.0409279391169548,-0.06902772188186646
1711545071112770000,1.54177001953125,-0.011224640533328056,-0.04825831577181816,-0.024434590712189674
1711545071131652400,1.56065234375,-0.023441936820745468,-0.03909534588456154,0.047036588191986084
1711545071150535000,1.579534912109375,-0.04298960790038109,-0.08857539296150208,0.11178825795650482
1711545071169417200,1.598417236328125,-0.03504836559295654,-0.17287473380565643,0.17348559200763702
1711545071188299500,1.617299560546875,-0.006948587018996477,-0.1490510106086731,0.14172062277793884
1711545071207182000,1.63618212890625,-0.002672533504664898,-0.07330377399921417,0.03237583488225937
1711545071226064400,1.655064453125,0.019929463043808937,-0.07819069176912308,-0.026878049597144127
1711545071244946700,1.67394677734375,0.03275762498378754,-0.12522727251052856,-0.013439024798572063
1711545071263829200,1.692829345703125,0.04436405375599861,-0.185092031955719,0.0513126403093338
1711545071282711600,1.711711669921875,0.011377356946468353,-0.31581708788871765,0.10079269111156464
1711545071301594000,1.730593994140625,-0.07964149862527847,-0.4764745235443115,0.16798780858516693
1711545071320476400,1.749476318359375,-0.12118030339479446,-0.6298015713691711,0.185092031955719
1711545071339358700,1.768358642578125,-0.08086322247982025,-0.8161153197288513,0.15638138353824615
1711545071358241300,1.7872412109375,-0.0319940410554409,-1.1313215494155884,0.10751219838857651
1711545071377123600,1.80612353515625,0.04741837829351425,-1.434921383857727,0.09040798991918564
1711545071396006100,1.825006103515625,0.20502148568630219,-1.2553271055221558,0.20158538222312927
1711545071414888400,1.843888427734375,0.28932082653045654,-0.7843503952026367,0.3231474757194519
1711545071433770800,1.862770751953125,0.24289511144161224,-0.4379900395870209,0.43004879355430603
1711545071452653300,1.8816533203125,0.14882193505764008,-0.328645259141922,0.47464191913604736
1711545071471535600,1.90053564453125,0.039477135986089706,-0.3274235129356384,0.3860665261745453
1711545071490418200,1.919418212890625,-0.020387612283229828,-0.2828303873538971,0.23273947834968567
1711545071509300500,1.938300537109375,-0.0191658828407526,-0.2712239623069763,0.12644900381565094
1711545071528182800,1.957182861328125,0.04192059487104416,-0.2993237376213074,0.1081230640411377
1711545071547065300,1.9760654296875,0.13538290560245514,-0.3090975880622864,0.143553227186203
1711545071565947600,1.99494775390625,0.20563235878944397,-0.27000224590301514,0.1954767256975174
1711545071584830200,2.013830322265625,0.21723878383636475,-0.22968515753746033,0.22296564280986786
1711545071603712500,2.03271240234375,0.18180863559246063,-0.2626718580722809,0.23823726177215576
1711545071622594800,2.0515947265625,0.1219438835978508,-0.24312418699264526,0.28405213356018066
1711545071641477400,2.070477294921875,0.022983787581324577,-0.08063415437936783,0.3610210716724396
1711545071660359700,2.089359619140625,-0.093691386282444,0.030543239787220955,0.4459312856197357
1711545071679242200,2.1082421875,-0.15783219039440155,0.024434590712189674,0.48075059056282043
1711545071698124500,2.12712451171875,-0.11873684078454971,0.05742128938436508,0.4166097939014435
1711545071717006800,2.1460068359375,-0.0319940410554409,0.06108647957444191,0.2510654330253601
1711545071735889400,2.164889404296875,0.03886627033352852,-0.026878049597144127,0.05253437161445618
1711545071754771700,2.183771728515625,0.09201150387525558,-0.053756099194288254,-0.08368847519159317
1711545071773654300,2.202654296875,0.1066722646355629,-0.0769689604640007,-0.12217295914888382
1711545071792536600,2.22153662109375,0.07002037763595581,-0.09529490768909454,-0.04581485688686371
1711545071811419000,2.2404189453125,-0.00022907429956831038,-0.01649334840476513,0.11484257876873016
1711545071830301400,2.259301513671875,-0.08086322247982025,0.0616973415017128,0.235793799161911
1711545071849183700,2.278183837890625,-0.11079560220241547,0.06291907280683517,0.24495677649974823
1711545071868066300,2.29706640625,-0.07780890166759491,0.05253437161445618,0.18203771114349365
1711545071886948600,2.315948486328125,-0.03565923124551773,0.06414080411195755,0.10629047453403473
1711545071905831200,2.3348310546875,-0.020998476073145866,0.05436696484684944,0.043982263654470444
1711545071924713500,2.35371337890625,-0.01611155830323696,0.06230820715427399,0.017104214057326317
1711545071943596000,2.372595947265625,-0.0191658828407526,0.12278381735086441,0.010995565913617611
1711545071962478300,2.391478271484375,-0.014278964139521122,0.14172062277793884,0.0030543238390237093
1711545071981360600,2.410360595703125,-0.000839939049910754,0.1594357043504715,-0.020769402384757996
1711545072000243200,2.4292431640625,0.008323032408952713,0.12950333952903748,-0.04825831577181816
1711545072019125500,2.44812548828125,0.0034361144062131643,0.09101885557174683,-0.07147117704153061
1711545072038008000,2.467008056640625,0.0009926552884280682,0.10445787757635117,-0.056199558079242706
1711545072056890400,2.485890380859375,-0.00755945174023509,0.14782927930355072,-0.014049889519810677
1711545072075773000,2.50477294921875,-0.017944153398275375,0.2706131041049957,0.01893680728971958
1711545072094655200,2.5236552734375,-0.03138317912817001,0.38240134716033936,-0.018325943499803543
1711545072113537800,2.542537841796875,-0.006337722297757864,0.43432486057281494,-0.09834922850131989
1711545072132420000,2.561420166015625,0.029703300446271896,0.46364638209342957,-0.143553227186203
1711545072151302700,2.580302734375,0.013209951110184193,0.4428769648075104,-0.11606431007385254
1711545072170185000,2.59918505859375,-0.07719803601503372,0.2577849328517914,-0.08063415437936783
1711545072189067300,2.6180673828125,-0.1505018174648285,-0.1747073233127594,-0.18264856934547424
1711545072207949800,2.63694970703125,-0.1559995859861374,-0.11362084746360779,-0.24862197041511536
1711545072226832100,2.65583203125,-0.2012035846710205,0.2162461280822754,-0.27855435013771057
1711545072245714700,2.674714599609375,-0.16149736940860748,0.043371398001909256,-0.29993459582328796
1711545072264597000,2.693596923828125,0.0022143847309052944,-0.3017672002315521,-0.24373504519462585
1711545072283479600,2.7124794921875,0.09445496648550034,-0.1997527778148651,-0.12095122784376144
1711545072302361900,2.73136181640625,0.03581194952130318,0.047036588191986084,-0.0665842592716217
1711545072321244400,2.750244384765625,-0.024663666263222694,0.20463970303535461,-0.07513637095689774
1711545072340126700,2.769126708984375,-0.020387612283229828,0.10690133273601532,-0.07880155742168427
1711545072359009300,2.78800927734375,-0.0057268571108579636,0.017104214057326317,-0.0030543238390237093
1711545072377891600,2.8068916015625,-0.04176788032054901,-0.033597562462091446,0.09590577334165573
1711545072396774100,2.825774169921875,-0.05887209251523018,0.0360410213470459,0.12583814561367035
1711545072415656400,2.844656494140625,-0.021609341725707054,0.10201441496610641,0.10751219838857651
1711545072434539000,2.8635390625,-0.017333287745714188,0.04276053607463837,0.026878049597144127
1711545072453421300,2.88242138671875,-0.018555017188191414,0.08796452730894089,-0.03176496922969818
1711545072472303900,2.901303955078125,-0.01611155830323696,0.20158538222312927,-0.023823726922273636
1711545072491186200,2.920186279296875,-0.030161447823047638,0.19364413619041443,0.043982263654470444
1711545072510068700,2.93906884765625,-0.056428633630275726,0.10506874322891235,0.11667517572641373
1711545072528951000,2.957950927734375,-0.0680350661277771,0.03787361457943916,0.1533270627260208
1711545072547833600,2.97683349609375,-0.06681333482265472,0.01282816007733345,0.1386663019657135
1711545072566716000,2.9957158203125,-0.057039499282836914,0.004886918235570192,0.07635809481143951
1711545072585598500,3.014598388671875,-0.03932442143559456,0.01282816007733345,-0.020769402384757996
1711545072604480800,3.033480712890625,-0.00022907429956831038,0.046425722539424896,-0.10323614627122879
1711545072623363300,3.05236328125,0.0009926552884280682,-0.01954767294228077,-0.143553227186203
1711545072642245600,3.07124560546875,-0.013057234697043896,-0.02260199747979641,-0.09040798991918564
1711545072661128200,3.090128173828125,-0.04298960790038109,0.015271619893610477,0.004886918235570192
1711545072680010500,3.109010498046875,-0.05948295816779137,0.01649334840476513,0.06597339361906052
1711545072698893000,3.12789306640625,-0.04604393243789673,0.03787361457943916,0.08429934084415436
1711545072717775400,3.146775390625,-0.03993528336286545,0.050090912729501724,0.03298669680953026
1711545072736658000,3.165657958984375,-0.023441936820745468,0.09407317638397217,-0.02626718580722809
1711545072755540200,3.184540283203125,-0.02649625949561596,0.13622283935546875,-0.06475166976451874
1711545072774422800,3.2034228515625,-0.037491824477910995,0.10201441496610641,-0.05497783049941063
1711545072793305000,3.22230517578125,-0.041157014667987823,0.04886918142437935,-0.007941242307424545
1711545072812187600,3.241187744140625,-0.03810269013047218,0.017715077847242355,0.04214967042207718
1711545072831070200,3.2600703125,-0.03993528336286545,0.07819069176912308,0.056810423731803894
1711545072849952500,3.278952392578125,-0.02893971838057041,0.17837251722812653,0.021991131827235222
1711545072868835000,3.2978349609375,-0.003894262947142124,0.19730933010578156,-0.03481929376721382
1711545072887717400,3.31671728515625,0.010155626572668552,0.1637117564678192,-0.07391463965177536
1711545072906600000,3.335599853515625,0.017486004158854485,0.13439024984836578,-0.07330377399921417
1711545072925482200,3.354482177734375,0.019929463043808937,0.18264856934547424,-0.05558869615197182
1711545072944364800,3.37336474609375,0.021151192486286163,0.17104214429855347,-0.05070177838206291
1711545072963247000,3.3922470703125,0.022983787581324577,0.13683371245861053,-0.05864302068948746
1711545072982129700,3.411129638671875,0.016875140368938446,0.12644900381565094,-0.046425722539424896
1711545073001012000,3.430011962890625,-0.009392046369612217,0.09346231073141098,-0.012217295356094837
1711545073019894500,3.44889453125,-0.030161447823047638,0.07330377399921417,0.024434590712189674
1711545073038776800,3.46777685546875,-0.027717988938093185,0.09346231073141098,0.039706211537122726
1711545073057659400,3.486659423828125,-0.01183550525456667,0.09529490768909454,0.03848448023200035
1711545073076542000,3.5055419921875,0.004657844081521034,0.11545344442129135,0.05497783049941063
1711545073095424300,3.52442431640625,-0.008170315995812416,0.09040798991918564,0.04581485688686371
1711545073114306800,3.543306884765625,-0.014278964139521122,0.05253437161445618,-0.006719512399286032
1711545073133189000,3.562189208984375,-0.01000291109085083,0.05070177838206291,-0.0665842592716217
1711545073152071700,3.58107177734375,-0.012446369975805283,0.020158538594841957,-0.10690133273601532
1711545073170954000,3.5999541015625,-0.017944153398275375,0.006108647678047419,-0.11606431007385254
1711545073189836500,3.61883642578125,-0.025274530053138733,-0.01893680728971958,-0.08796452730894089
1711545073208719000,3.637718994140625,-0.002061668550595641,-0.010995565913617611,-0.03909534588456154
1711545073227601400,3.656601318359375,0.018096869811415672,-0.02871064469218254,-0.002443459117785096
1711545073246484000,3.67548388671875,0.0016035200096666813,-0.043982263654470444,0.007330377586185932
1711545073265366300,3.6943662109375,-0.013057234697043896,0.009773836471140385,0.010384701192378998
1711545073284248800,3.713248779296875,-0.014278964139521122,0.006108647678047419,0.006719512399286032
1711545073303131100,3.732131103515625,-0.00755945174023509,-0.009162971749901772,-0.009773836471140385
1711545073322013700,3.751013671875,-0.024052800610661507,0.027488915249705315,-0.0409279391169548
1711545073340896300,3.769896240234375,-0.04298960790038109,0.1337793916463852,-0.06963858753442764
1711545073359778600,3.788778564453125,-0.03932442143559456,0.21135921776294708,-0.06230820715427399
1711545073378661000,3.8076611328125,-0.05887209251523018,0.1844811588525772,0.1893680840730667
1711545073397543400,3.82654345703125,-0.10163262486457825,-0.1997527778148651,0.3139844834804535
1711545073416426000,3.845426025390625,-0.03565923124551773,-0.21991132199764252,0.16737695038318634
1711545073435308500,3.86430859375,-0.03627009689807892,0.03298669680953026,-0.1588248461484909
1711545073454190800,3.88319091796875,-0.025274530053138733,0.09590577334165573,-0.3836230933666229
1711545073473073400,3.902073486328125,0.013820815831422806,-0.2522871494293213,-0.35185810923576355
1711545073491955700,3.920955810546875,0.06391172856092453,-0.6102539300918579,-0.18814635276794434
1711545073510838300,3.93983837890625,0.09689842909574509,-0.574212908744812,0.015271619893610477
1711545073529720800,3.958720947265625,0.04864010959863663,-0.3836230933666229,0.12095122784376144
1711545073548603100,3.97760302734375,-0.03993528336286545,-0.12767073512077332,0.11911863088607788
1711545073567485700,3.996485595703125,-0.11140646785497665,-0.007330377586185932,0.039706211537122726
1711545073586368000,4.015367919921875,-0.11812597513198853,-0.04581485688686371,-0.009162971749901772
1711545073605250600,4.03425048828125,-0.09674570709466934,-0.14538581669330597,0.001221729558892548
1711545073624133000,4.053133056640625,-0.07475458085536957,-0.20463970303535461,0.050090912729501724
1711545073643015400,4.072015380859375,-0.08269581943750381,-0.21441353857517242,0.10690133273601532
1711545073661898000,4.09089794921875,-0.10713040828704834,-0.14233149588108063,0.13744457066059113
1711545073680780300,4.1097802734375,-0.10224349051713943,-0.046425722539424896,0.11728604137897491
1711545073699662800,4.128662841796875,-0.05459604039788246,0.01588248461484909,0.06719512492418289
1711545073718545400,4.14754541015625,-0.0057268571108579636,0.0054977829568088055,0.030543239787220955
1711545073737427700,4.166427734375,0.00954476185142994,-0.0818558782339096,0.018325943499803543
1711545073756310300,4.185310302734375,0.01626427471637726,-0.09346231073141098,0.018325943499803543
1711545073775192800,4.20419287109375,0.010155626572668552,-0.0977383628487587,0.003665188793092966
1711545073794075100,4.2230751953125,0.022983787581324577,-0.08613193035125732,0.001221729558892548
1711545073812957700,4.241957763671875,0.029703300446271896,-0.05864302068948746,0.01588248461484909
1711545073831840300,4.26084033203125,0.01259908638894558,-0.0256563201546669,0.03543015569448471
1711545073850722600,4.27972265625,-0.0057268571108579636,0.000610864779446274,0.04214967042207718
1711545073869605000,4.298605224609375,-0.010613775812089443,-0.036651886999607086,0.028099779039621353
1711545073888487400,4.3174873046875,-0.00511599238961935,-0.03909534588456154,0.009773836471140385
1711545073907370000,4.336369873046875,-0.010613775812089443,-0.020769402384757996,-0.004276053514331579
1711545073926252500,4.35525244140625,-0.020387612283229828,-0.009773836471140385,-0.009773836471140385
1711545073945135000,4.374135009765625,-0.024052800610661507,-0.001832594396546483,-0.021991131827235222
1711545073964017400,4.393017333984375,-0.01977674663066864,0.009162971749901772,-0.028099779039621353
1711545073982900000,4.41189990234375,-0.020387612283229828,-0.011606430634856224,-0.0054977829568088055
1711545074001782300,4.4307822265625,-0.028328854590654373,-0.01954767294228077,0.02932151034474373
1711545074020664800,4.449664794921875,-0.01977674663066864,-0.039706211537122726,0.049480047076940536
1711545074039547400,4.46854736328125,0.004046979360282421,-0.036651886999607086,0.04520399495959282
1711545074058429700,4.4874296875,0.017486004158854485,-0.027488915249705315,0.027488915249705315
1711545074077312300,4.506312255859375,0.01626427471637726,-0.04276053607463837,-0.0030543238390237093
1711545074096194800,4.52519482421875,0.024816380813717842,-0.01954767294228077,-0.03237583488225937
1711545074115077000,4.5440771484375,0.04253146052360535,-0.023823726922273636,-0.05070177838206291
1711545074133959700,4.562959716796875,0.04741837829351425,-0.004886918235570192,-0.024434590712189674
1711545074152842200,4.58184228515625,0.022983787581324577,-0.012217295356094837,0.039706211537122726
1711545074171724500,4.600724609375,-0.01672242395579815,-0.036651886999607086,0.10995566099882126
1711545074190607000,4.619607177734375,-0.04909825697541237,-0.04276053607463837,0.12217295914888382
1711545074209489700,4.63848974609375,-0.044211339205503464,-0.023823726922273636,0.0769689604640007
1711545074228372200,4.657372314453125,-0.020387612283229828,0.006719512399286032,0.021380268037319183
1711545074247254500,4.676254638671875,-0.012446369975805283,0,-0.02932151034474373
1711545074266137000,4.69513720703125,-0.00511599238961935,-0.002443459117785096,-0.040317077189683914
1711545074285019600,4.71401953125,-0.011224640533328056,-0.011606430634856224,-0.01893680728971958
1711545074303902000,4.73290185546875,-0.022220205515623093,-0.002443459117785096,-0.001221729558892548
1711545074322784500,4.751784423828125,-0.023441936820745468,0.000610864779446274,0.0054977829568088055
1711545074341667000,4.7706669921875,-0.015500693581998348,-0.002443459117785096,-0.002443459117785096
1711545074360549400,4.78954931640625,-0.001450803829357028,-0.027488915249705315,0.007330377586185932
1711545074379432000,4.808431884765625,0.002825249684974551,-0.04886918142437935,0.037262752652168274
1711545074398314500,4.827314453125,-0.001450803829357028,-0.03543015569448471,0.05925388261675835
1711545074417196800,4.84619677734375,-0.00022907429956831038,0.013439024798572063,0.05925388261675835
1711545074436079400,4.865079345703125,0.002825249684974551,0.04459312930703163,0.043982263654470444
1711545074454962000,4.8839619140625,0.010766491293907166,0.03237583488225937,0.04214967042207718
1711545074473844500,4.902844482421875,0.0077121676877141,0.002443459117785096,0.05742128938436508
1711545074492726800,4.921726806640625,-0.002672533504664898,0.000610864779446274,0.06719512492418289
1711545074511609300,4.940609375,-0.017333287745714188,0.001221729558892548,0.03481929376721382
1711545074530492000,4.959491943359375,-0.024052800610661507,-0.014660755172371864,-0.02932151034474373
1711545074549374500,4.97837451171875,-0.030772313475608826,-0.006719512399286032,-0.06902772188186646
1711545074568256800,4.9972568359375,-0.03138317912817001,-0.01954767294228077,-0.06475166976451874
1711545074587139300,5.016139404296875,-0.023441936820745468,-0.014660755172371864,-0.028099779039621353
1711545074606022000,5.03502197265625,-0.022220205515623093,-0.011606430634856224,0.006108647678047419
1711545074624904200,5.053904296875,-0.027717988938093185,-0.01282816007733345,0.01588248461484909
1711545074643786800,5.072786865234375,-0.027717988938093185,0.003665188793092966,0.012217295356094837
1711545074662669300,5.09166943359375,-0.017944153398275375,-0.012217295356094837,-0.004886918235570192
1711545074681552000,5.1105517578125,-0.006948587018996477,0.008552107028663158,-0.009773836471140385
1711545074700434200,5.12943408203125,0.00038179047987796366,0.04459312930703163,0.0030543238390237093
1711545074719316700,5.148316650390625,0.006490438245236874,0.03298669680953026,0.024434590712189674
1711545074738199300,5.16719921875,0.00038179047987796366,-0.004276053514331579,0.03298669680953026
1711545074757081900,5.186081787109375,-0.006337722297757864,-0.0409279391169548,0.009773836471140385
1711545074775964200,5.204964111328125,-0.006337722297757864,-0.018325943499803543,-0.0256563201546669
1711545074794846700,5.2238466796875,-0.00511599238961935,0.021991131827235222,-0.0409279391169548
1711545074813729300,5.242729248046875,-0.011224640533328056,0.02626718580722809,-0.01588248461484909
1711545074832611800,5.26161181640625,-0.02649625949561596,0,0.01649334840476513
1711545074851494100,5.280494140625,-0.0295505840331316,-0.018325943499803543,0.025045456364750862
1711545074870376700,5.299376708984375,-0.01611155830323696,0.006108647678047419,0.010995565913617611
1711545074889259300,5.31825927734375,-0.001450803829357028,0.004276053514331579,-0.007330377586185932
1711545074908141800,5.337141845703125,0.008323032408952713,0.002443459117785096,-0.006108647678047419
1711545074927024000,5.356024169921875,-0.002672533504664898,0.01649334840476513,0.000610864779446274
1711545074945906700,5.37490673828125,-0.014278964139521122,0.009162971749901772,0.0256563201546669
1711545074964789200,5.393789306640625,-0.01611155830323696,-0.011606430634856224,0.05192350596189499
1711545074983671800,5.412671875,-0.017944153398275375,-0.023212861269712448,0.04214967042207718
1711545075002554400,5.431554443359375,-0.009392046369612217,0.002443459117785096,0.009162971749901772
1711545075021436700,5.450436767578125,0.0009926552884280682,0.025045456364750862,-0.021991131827235222
1711545075040319200,5.4693193359375,-0.002672533504664898,0.01588248461484909,-0.03787361457943916
1711545075059201800,5.488201904296875,-0.009392046369612217,0.0030543238390237093,-0.031154103577136993
1711545075078084400,5.50708447265625,-0.013057234697043896,-0.009162971749901772,-0.003665188793092966
1711545075096967000,5.525966796875,-0.01183550525456667,-0.02260199747979641,0.021380268037319183
1711545075115849200,5.54484912109375,-0.01000291109085083,-0.001832594396546483,0.02260199747979641
1711545075134731800,5.563731689453125,-0.011224640533328056,0.0054977829568088055,-0.000610864779446274
1711545075153614300,5.5826142578125,-0.013057234697043896,-0.001832594396546483,-0.008552107028663158
1711545075172497000,5.601496826171875,-0.011224640533328056,0.002443459117785096,0.013439024798572063
1711545075191379500,5.62037939453125,-0.010613775812089443,-0.000610864779446274,0.03237583488225937
1711545075210261800,5.63926171875,-0.006948587018996477,-0.001832594396546483,0.05925388261675835
1711545075229144300,5.658144287109375,-0.017333287745714188,-0.01588248461484909,0.06963858753442764
1711545075248027000,5.67702685546875,-0.024052800610661507,0.004276053514331579,0.05925388261675835
1711545075266909400,5.695909423828125,-0.017944153398275375,0.018325943499803543,0.02260199747979641
1711545075285792000,5.7147919921875,0.005268708802759647,0.023212861269712448,-0.0030543238390237093
1711545075304674300,5.73367431640625,0.01259908638894558,-0.002443459117785096,-0.010995565913617611
1711545075323556900,5.752556884765625,-0.001450803829357028,0.004886918235570192,-0.004276053514331579
1711545075342439400,5.771439453125,-0.018555017188191414,0.01954767294228077,0.007330377586185932
1711545075361322000,5.790322021484375,-0.017944153398275375,0.024434590712189674,0.014660755172371864
1711545075380204500,5.80920458984375,-0.01183550525456667,-0.013439024798572063,0.011606430634856224
1711545075399087000,5.828087158203125,-0.003894262947142124,-0.01282816007733345,-0.002443459117785096
1711545075417969400,5.846969482421875,0.00038179047987796366,0.03298669680953026,-0.0030543238390237093
1711545075436852000,5.86585205078125,-0.01000291109085083,0.02260199747979641,0.013439024798572063
1711545075455734500,5.884734619140625,-0.017944153398275375,-0.007330377586185932,0.036651886999607086
1711545075474617000,5.9036171875,-0.03138317912817001,-0.010384701192378998,0.02626718580722809
1711545075493499600,5.922499755859375,-0.030161447823047638,0.007941242307424545,-0.009162971749901772
1711545075512382200,5.94138232421875,-0.017944153398275375,-0.001221729558892548,-0.036651886999607086
1711545075531264500,5.960264404296875,-0.015500693581998348,-0.010384701192378998,-0.04214967042207718
1711545075550147000,5.97914697265625,-0.018555017188191414,-0.011606430634856224,-0.05497783049941063
1711545075569029600,5.998029541015625,-0.009392046369612217,0.001221729558892548,-0.0513126403093338
1711545075587912200,6.016912109375,-0.010613775812089443,0.014660755172371864,-0.01282816007733345
1711545075606794800,6.035794677734375,-0.021609341725707054,-0.006108647678047419,0.029932374134659767
1711545075625677300,6.05467724609375,-0.02588539570569992,-0.026878049597144127,0.04214967042207718
1711545075644560000,6.073559814453125,-0.013057234697043896,-0.010995565913617611,0.023212861269712448
1711545075663442200,6.092442138671875,0.005268708802759647,0.015271619893610477,-0.007330377586185932
1711545075682324700,6.11132470703125,0.017486004158854485,0.020769402384757996,-0.010384701192378998
1711545075701207300,6.130207275390625,0.002825249684974551,0.004276053514331579,0.0030543238390237093
1711545075720089900,6.14908984375,-0.020387612283229828,0.003665188793092966,0.01649334840476513
1711545075738972400,6.167972412109375,-0.034437503665685654,-0.006108647678047419,0.009773836471140385
1711545075757855000,6.18685498046875,-0.020998476073145866,-0.007941242307424545,-0.009162971749901772
1711545075776737500,6.205737548828125,-0.000839939049910754,-0.013439024798572063,-0.027488915249705315
1711545075795620000,6.2246201171875,0.0009926552884280682,0.009773836471140385,-0.023823726922273636
1711545075814502700,6.243502685546875,-0.018555017188191414,0.013439024798572063,-0.01893680728971958
1711545075833385000,6.262385009765625,-0.028328854590654373,0.006108647678047419,-0.020158538594841957
1711545075852267500,6.281267578125,-0.01977674663066864,-0.017715077847242355,-0.01282816007733345
1711545075871150000,6.300150146484375,-0.006337722297757864,-0.014660755172371864,0.01649334840476513
1711545075890032600,6.31903271484375,-0.014889828860759735,0.002443459117785096,0.02871064469218254
1711545075908915200,6.337915283203125,-0.024052800610661507,0.008552107028663158,0.01649334840476513
1711545075927797800,6.3567978515625,-0.020387612283229828,-0.009773836471140385,-0.011606430634856224
1711545075946680300,6.375680419921875,-0.008781181648373604,-0.014660755172371864,-0.025045456364750862
1711545075965563000,6.39456298828125,0.004046979360282421,0.001221729558892548,-0.006719512399286032
1711545075984445200,6.413445068359375,0.0016035200096666813,0.01282816007733345,0.031154103577136993
1711545076003327700,6.43232763671875,-0.014278964139521122,-0.0030543238390237093,0.03909534588456154
1711545076022210300,6.451210205078125,-0.010613775812089443,-0.010995565913617611,0.012217295356094837
1711545076041092900,6.4700927734375,0.0034361144062131643,-0.01282816007733345,-0.033597562462091446
1711545076059975400,6.488975341796875,0.01565340906381607,-0.007941242307424545,-0.05558869615197182
1711545076078858000,6.50785791015625,0.00954476185142994,0.008552107028663158,-0.030543239787220955
1711545076097740500,6.526740478515625,-0.013668099418282509,-0.007330377586185932,0.01954767294228077
1711545076116623000,6.545623046875,-0.030161447823047638,-0.004886918235570192,0.06108647957444191
1711545076135505700,6.564505615234375,-0.034437503665685654,0.003665188793092966,0.05925388261675835
1711545076154388200,6.58338818359375,-0.01977674663066864,0,0.03237583488225937
1711545076173270800,6.602270751953125,-0.004505127668380737,-0.0030543238390237093,0.006108647678047419
1711545076192153300,6.6211533203125,-0.002672533504664898,-0.009162971749901772,-0.003665188793092966
1711545076211036000,6.640035888671875,-0.015500693581998348,-0.004886918235570192,-0.0030543238390237093
1711545076229918500,6.65891845703125,-0.02283107116818428,-0.0030543238390237093,-0.001832594396546483
1711545076248800800,6.67780078125,-0.01611155830323696,-0.006719512399286032,0.0054977829568088055
1711545076267683300,6.696683349609375,-0.011224640533328056,-0.010995565913617611,0.004886918235570192
1711545076286566000,6.71556591796875,0.0016035200096666813,0.0030543238390237093,0.001832594396546483
1711545076305448400,6.734448486328125,0.004657844081521034,0.01649334840476513,0.013439024798572063
1711545076324331000,6.7533310546875,-0.006337722297757864,0.002443459117785096,0.02932151034474373
1711545076343213600,6.772213623046875,-0.014889828860759735,-0.009162971749901772,0.03176496922969818
1711545076362096000,6.79109619140625,-0.022220205515623093,0.0054977829568088055,0.015271619893610477
1711545076380978700,6.809978759765625,-0.01672242395579815,0.014049889519810677,-0.007941242307424545
1711545076399861200,6.828861328125,-0.002672533504664898,0.012217295356094837,-0.017715077847242355
1711545076418743800,6.847743896484375,-0.008170315995812416,0.017715077847242355,-0.01649334840476513
1711545076437626400,6.86662646484375,-0.021609341725707054,-0.0054977829568088055,-0.001832594396546483
1711545076456509000,6.885509033203125,-0.028328854590654373,-0.03237583488225937,0.015271619893610477
1711545076475391500,6.9043916015625,-0.02893971838057041,-0.020158538594841957,0.02260199747979641
1711545076494274000,6.923274169921875,-0.023441936820745468,0.024434590712189674,0.01954767294228077
1711545076513156600,6.942156494140625,-0.01672242395579815,0.027488915249705315,0.017104214057326317
1711545076532039200,6.9610390625,-0.012446369975805283,-0.006719512399286032,0.021380268037319183
1711545076550921700,6.979921630859375,-0.013668099418282509,-0.021991131827235222,0.017715077847242355
1711545076569804300,6.99880419921875,-0.010613775812089443,-0.0054977829568088055,-0.001221729558892548
1711545076588686800,7.017686767578125,-0.002061668550595641,0.034208428114652634,-0.01893680728971958
1711545076607569400,7.0365693359375,-0.002672533504664898,0.023212861269712448,-0.020158538594841957
1711545076626452000,7.055451904296875,-0.014278964139521122,0.010384701192378998,-0.0030543238390237093
1711545076645334500,7.07433447265625,-0.03138317912817001,-0.020158538594841957,0.0030543238390237093
1711545076664217000,7.093217041015625,-0.024052800610661507,-0.02932151034474373,-0.008552107028663158
1711545076683099600,7.112099609375,-0.009392046369612217,-0.001221729558892548,-0.014660755172371864
1711545076701982200,7.130982177734375,-0.012446369975805283,0.020769402384757996,-0.007941242307424545
1711545076720864800,7.14986474609375,-0.024663666263222694,0.028099779039621353,0.020158538594841957
1711545076739747300,7.168747314453125,-0.03871355578303337,0.002443459117785096,0.04276053607463837
1711545076758630000,7.1876298828125,-0.034437503665685654,-0.01282816007733345,0.05436696484684944
1711545076777512400,7.206512451171875,-0.018555017188191414,0.010995565913617611,0.04825831577181816
1711545076796395000,7.22539501953125,-0.003894262947142124,0.006719512399286032,0.014660755172371864
1711545076815277600,7.244277587890625,0.010155626572668552,-0.006719512399286032,-0.034208428114652634
1711545076834160000,7.26316015625,0.016875140368938446,0.009773836471140385,-0.046425722539424896
1711545076853042700,7.282042724609375,-0.002061668550595641,0.012217295356094837,-0.0256563201546669
1711545076871925200,7.30092529296875,-0.02283107116818428,-0.001832594396546483,0.0054977829568088055
1711545076890807800,7.319807861328125,-0.02893971838057041,-0.009773836471140385,0.025045456364750862
1711545076909690400,7.3386904296875,-0.03321577236056328,-0.01282816007733345,0.007330377586185932
1711545076928573000,7.357572998046875,-0.027107125148177147,-0.003665188793092966,-0.018325943499803543
1711545076947455500,7.37645556640625,-0.025274530053138733,0.006719512399286032,-0.028099779039621353
1711545076966338000,7.395338134765625,-0.023441936820745468,-0.001221729558892548,-0.01649334840476513
1711545076985220600,7.414220703125,-0.011224640533328056,-0.020158538594841957,0.007941242307424545
1711545077004103200,7.433103271484375,-0.008781181648373604,-0.002443459117785096,0.0256563201546669
1711545077022985700,7.45198583984375,-0.013057234697043896,0.026878049597144127,0.02871064469218254
1711545077041868300,7.470868408203125,-0.01611155830323696,0.013439024798572063,0.015271619893610477
1711545077060750800,7.489750732421875,-0.013668099418282509,-0.010384701192378998,-0.001221729558892548
1711545077079633400,7.50863330078125,-0.006948587018996477,0.0054977829568088055,-0.012217295356094837
1711545077098516000,7.527515869140625,-0.002061668550595641,0.0030543238390237093,-0.010384701192378998
1711545077117398800,7.546398681640625,-0.017333287745714188,-0.017715077847242355,-0.0054977829568088055
1711545077136281300,7.56528125,-0.034437503665685654,-0.01893680728971958,-0.002443459117785096
1711545077155164000,7.584163818359375,-0.03932442143559456,-0.004276053514331579,-0.001832594396546483
1711545077174046500,7.60304638671875,-0.028328854590654373,0.004276053514331579,0.004276053514331579
1711545077192929000,7.621928955078125,-0.01183550525456667,-0.017715077847242355,0.002443459117785096
1711545077211811600,7.6408115234375,-0.008170315995812416,-0.008552107028663158,-0.004886918235570192
1711545077230694100,7.659694091796875,-0.014278964139521122,0.017715077847242355,-0.009162971749901772
1711545077249576700,7.67857666015625,-0.01611155830323696,0.02626718580722809,0.009162971749901772
1711545077268459300,7.697459228515625,-0.017333287745714188,0.001221729558892548,0.02871064469218254
1711545077287341800,7.716341796875,-0.01183550525456667,-0.012217295356094837,0.029932374134659767
1711545077306224400,7.735224365234375,0.004657844081521034,-0.026878049597144127,0.006719512399286032
1711545077325107000,7.75410693359375,0.0193185992538929,-0.004276053514331579,-0.008552107028663158
1711545077343989500,7.772989501953125,0.021151192486286163,0.014660755172371864,0.021380268037319183
1711545077362872300,7.791872314453125,0.0058795735239982605,-0.009773836471140385,0.04764745384454727
1711545077381755000,7.8107548828125,-0.014278964139521122,0.001221729558892548,0.04153880476951599
1711545077400637400,7.829637451171875,-0.03260490670800209,-0.012217295356094837,-0.01588248461484909
1711545077419520000,7.84852001953125,-0.020998476073145866,-0.010995565913617611,-0.06963858753442764
1711545077438402600,7.867402587890625,-0.002672533504664898,-0.006108647678047419,-0.0824667438864708
1711545077457285000,7.88628515625,0.0058795735239982605,-0.009162971749901772,-0.05497783049941063
1711545077476167700,7.905167724609375,0.0058795735239982605,-0.009162971749901772,-0.001832594396546483
1711545077495050200,7.92405029296875,-0.014889828860759735,-0.009162971749901772,0.040317077189683914
1711545077513932800,7.942932861328125,-0.03627009689807892,-0.006108647678047419,0.050090912729501724
1711545077532815600,7.961815673828125,-0.04176788032054901,-0.01282816007733345,0.017715077847242355
1711545077551698200,7.9806982421875,-0.030161447823047638,-0.014660755172371864,-0.028099779039621353
1711545077570580700,7.999580810546875,-0.008781181648373604,-0.009162971749901772,-0.04825831577181816
1711545077589463300,8.01846337890625,-0.00511599238961935,-0.018325943499803543,-0.0360410213470459
1711545077608345900,8.037345947265624,-0.025274530053138733,-0.01282816007733345,-0.017104214057326317
1711545077627228400,8.056228515625,-0.037491824477910995,-0.020158538594841957,-0.007330377586185932
1711545077646111000,8.075111083984375,-0.030161447823047638,-0.01588248461484909,-0.006719512399286032
1711545077664993500,8.09399365234375,-0.014278964139521122,-0.007941242307424545,-0.014660755172371864
1711545077683876400,8.11287646484375,0.008323032408952713,-0.008552107028663158,-0.010995565913617611
1711545077702759000,8.131759033203124,0.013209951110184193,-0.011606430634856224,-0.008552107028663158
1711545077721641500,8.150641357421875,0.011988221667706966,-0.003665188793092966,-0.008552107028663158
1711545077740524000,8.16952392578125,0.004046979360282421,-0.007941242307424545,-0.010995565913617611
1711545077759406600,8.188406494140626,-0.008781181648373604,-0.01954767294228077,-0.007941242307424545
1711545077778289200,8.2072890625,-0.01672242395579815,-0.010384701192378998,0.006108647678047419
1711545077797171700,8.226171630859374,-0.024663666263222694,0.007941242307424545,0.017104214057326317
1711545077816054500,8.245054443359376,-0.024052800610661507,-0.004886918235570192,0.013439024798572063
1711545077834937000,8.26393701171875,-0.021609341725707054,-0.03848448023200035,-0.004886918235570192
1711545077853819600,8.282819580078124,-0.017944153398275375,-0.043982263654470444,-0.017715077847242355
1711545077872702200,8.3017021484375,-0.011224640533328056,-0.017715077847242355,-0.01588248461484909
1711545077891584800,8.320584716796875,-0.012446369975805283,0.004276053514331579,-0.009773836471140385
1711545077910467300,8.33946728515625,-0.020998476073145866,0.007941242307424545,0.0030543238390237093
1711545077929350000,8.358349853515625,-0.024052800610661507,-0.014660755172371864,0.009773836471140385
1711545077948232700,8.377232666015624,-0.018555017188191414,-0.056810423731803894,0.004276053514331579
1711545077967115300,8.396115234375,-0.010613775812089443,-0.05864302068948746,-0.009162971749901772
1711545077985997800,8.414997802734375,-0.012446369975805283,-0.018325943499803543,-0.01588248461484909
1711545078004880400,8.43388037109375,-0.017333287745714188,0.001832594396546483,-0.01588248461484909
1711545078023763000,8.452762939453125,-0.01672242395579815,-0.009773836471140385,-0.009773836471140385
1711545078042645500,8.4716455078125,-0.02283107116818428,-0.01588248461484909,0.000610864779446274
1711545078061528300,8.4905283203125,-0.03321577236056328,-0.021380268037319183,0.007941242307424545
1711545078080411000,8.509410888671875,-0.030772313475608826,-0.039706211537122726,0.001221729558892548
1711545078099293400,8.52829345703125,-0.012446369975805283,-0.034208428114652634,-0.003665188793092966
1711545078118176000,8.547176025390625,-0.002061668550595641,-0.013439024798572063,-0.007941242307424545
1711545078137058600,8.56605859375,-0.003283398225903511,0.001221729558892548,-0.015271619893610477
1711545078155941400,8.58494140625,-0.013668099418282509,-0.018325943499803543,-0.012217295356094837
1711545078174824000,8.603823974609375,-0.020387612283229828,-0.028099779039621353,-0.004276053514331579
1711545078193706500,8.62270654296875,-0.010613775812089443,-0.026878049597144127,-0.009773836471140385
1711545078212589000,8.641589111328125,0.010766491293907166,-0.01588248461484909,-0.017104214057326317
1711545078231471600,8.6604716796875,0.013209951110184193,-0.009162971749901772,-0.03298669680953026
1711545078250354200,8.679354248046875,0.004046979360282421,-0.006108647678047419,-0.0360410213470459
1711545078269237000,8.698237060546875,-0.006337722297757864,-0.023212861269712448,-0.02626718580722809
1711545078288119600,8.71711962890625,-0.003283398225903511,-0.020769402384757996,-0.007941242307424545
1711545078307002000,8.736002197265625,0.0058795735239982605,-0.01649334840476513,0.006108647678047419
1711545078325884700,8.754884765625,0.011988221667706966,0.001221729558892548,0.01588248461484909
1711545078344767500,8.773767578125,0.010766491293907166,0.006108647678047419,0.020158538594841957
1711545078363650000,8.792650146484375,0.0022143847309052944,-0.007330377586185932,0.009162971749901772
1711545078382532600,8.81153271484375,-0.006948587018996477,-0.01588248461484909,-0.02626718580722809
1711545078401415200,8.830415283203125,-0.003894262947142124,-0.011606430634856224,-0.06352993845939636
1711545078420297700,8.849297607421875,0.008323032408952713,-0.01954767294228077,-0.07086031138896942
1711545078439180500,8.8681806640625,0.005268708802759647,-0.0054977829568088055,-0.03909534588456154
1711545078458063000,8.88706298828125,-0.01672242395579815,-0.0030543238390237093,0.014049889519810677
1711545078476945700,8.905945556640624,-0.03504836559295654,-0.004276053514331579,0.0616973415017128
1711545078495828200,8.924828125,-0.046654798090457916,-0.013439024798572063,0.06780599057674408
1711545078514711000,8.9437109375,-0.03565923124551773,-0.015271619893610477,0.03298669680953026
1711545078533593600,8.962593505859376,-0.025274530053138733,-0.018325943499803543,-0.02260199747979641
1711545078552476200,8.98147607421875,-0.025274530053138733,-0.001221729558892548,-0.06108647957444191
1711545078571358700,9.000358642578124,-0.02283107116818428,0,-0.05497783049941063
1711545078590241300,9.0192412109375,-0.020387612283229828,-0.004276053514331579,-0.02260199747979641
1711545078609124000,9.0381240234375,-0.017944153398275375,-0.006719512399286032,-0.000610864779446274
1711545078628006700,9.057006591796876,-0.001450803829357028,-0.02932151034474373,0.0054977829568088055
1711545078646889200,9.07588916015625,0.011377356946468353,-0.021380268037319183,0.001221729558892548
1711545078665771800,9.094771728515624,0.006490438245236874,0.007941242307424545,-0.02260199747979641
1711545078684654600,9.113654541015626,-0.004505127668380737,0.023823726922273636,-0.0409279391169548
1711545078703537200,9.132537109375,-0.013668099418282509,0.010995565913617611,-0.021991131827235222
1711545078722419700,9.151419677734374,-0.01977674663066864,-0.010384701192378998,0.024434590712189674
1711545078741302300,9.17030224609375,-0.024052800610661507,-0.01588248461484909,0.05864302068948746
1711545078760185000,9.18918505859375,-0.03138317912817001,-0.010384701192378998,0.049480047076940536
1711545078779067600,9.208067626953126,-0.034437503665685654,-0.012217295356094837,0.006719512399286032
1711545078797950200,9.2269501953125,-0.0295505840331316,-0.010384701192378998,-0.02932151034474373
1711545078816832800,9.245832763671874,-0.02893971838057041,-0.010995565913617611,-0.0409279391169548
1711545078835715300,9.26471533203125,-0.030772313475608826,-0.001221729558892548,-0.024434590712189674
1711545078854598100,9.28359814453125,-0.03810269013047218,-0.006719512399286032,0.000610864779446274
1711545078873480700,9.302480712890626,-0.04604393243789673,-0.021991131827235222,0.0054977829568088055
1711545078892363300,9.32136328125,-0.043600473552942276,-0.040317077189683914,-0.013439024798572063
1711545078911246000,9.34024609375,-0.028328854590654373,-0.000610864779446274,-0.0256563201546669
1711545078930128600,9.359128662109375,-0.025274530053138733,0.008552107028663158,-0.029932374134659767
1711545078949011200,9.37801123046875,-0.024663666263222694,-0.010384701192378998,-0.03298669680953026
1711545078967893800,9.396893798828126,-0.020998476073145866,-0.023823726922273636,-0.04520399495959282
1711545078986776600,9.415776611328125,-0.017944153398275375,-0.02871064469218254,-0.049480047076940536
1711545079005659100,9.4346591796875,-0.01611155830323696,-0.01893680728971958,-0.04459312930703163
1711545079024541700,9.453541748046876,-0.01672242395579815,-0.0256563201546669,-0.04825831577181816
1711545079043424300,9.47242431640625,-0.008781181648373604,-0.014049889519810677,-0.04764745384454727
1711545079062307000,9.49130712890625,-0.00511599238961935,-0.017715077847242355,-0.04764745384454727
1711545079081189600,9.510189697265625,-0.009392046369612217,-0.039706211537122726,-0.04459312930703163
1711545079100072200,9.529072265625,-0.017944153398275375,-0.04459312930703163,-0.030543239787220955
1711545079118954800,9.547954833984376,-0.027717988938093185,-0.03176496922969818,-0.008552107028663158
1711545079137837600,9.566837646484375,-0.03138317912817001,-0.015271619893610477,0.014049889519810677
1711545079156720000,9.58572021484375,-0.02649625949561596,-0.013439024798572063,0.02260199747979641
1711545079175602700,9.604602783203125,-0.017333287745714188,-0.02626718580722809,0.01649334840476513
1711545079194485500,9.623485595703125,-0.01183550525456667,-0.04825831577181816,-0.004886918235570192
1711545079213368000,9.6423681640625,0.004657844081521034,-0.0409279391169548,0.0054977829568088055
1711545079232250600,9.661250732421875,0.0009926552884280682,-0.07147117704153061,0.017104214057326317
1711545079251133400,9.680133544921874,-0.004505127668380737,-0.02871064469218254,0.04825831577181816
1711545079270016000,9.69901611328125,-0.010613775812089443,-0.01282816007733345,0.06841685622930527
1711545079288898600,9.717898681640625,-0.006948587018996477,0,0.05742128938436508
1711545079307781000,9.736781005859376,-0.020998476073145866,-0.026878049597144127,0.009773836471140385
1711545079326664000,9.755663818359375,-0.00022907429956831038,-0.02932151034474373,-0.010995565913617611
1711545079345546500,9.77454638671875,0.007101302966475487,-0.027488915249705315,-0.000610864779446274
1711545079364429000,9.793428955078125,-0.01183550525456667,0.023823726922273636,0.0256563201546669
1711545079383312000,9.812311767578125,-0.017944153398275375,0.04214967042207718,0.04459312930703163
1711545079402194400,9.8311943359375,-0.0057268571108579636,0.01649334840476513,0.07452550530433655
1711545079421077000,9.850076904296875,-0.004505127668380737,0.017104214057326317,0.1185077652335167
1711545079439959600,9.86895947265625,-0.013057234697043896,0.03543015569448471,0.1380554437637329
1711545079458842400,9.88784228515625,-0.01000291109085083,0.02932151034474373,0.12095122784376144
1711545079477725000,9.906724853515625,0.0034361144062131643,0.010995565913617611,0.06719512492418289
1711545079496607500,9.925607421875,0.013820815831422806,0.009162971749901772,0.009162971749901772
1711545079515490300,9.944490234375,0.011988221667706966,0.0360410213470459,-0.02260199747979641
1711545079534372900,9.963372802734375,-0.002061668550595641,0.026878049597144127,-0.014049889519810677
1711545079553255400,9.98225537109375,-0.017333287745714188,0.0030543238390237093,0.010995565913617611
1711545079572138000,10.001137939453125,-0.014278964139521122,-0.01588248461484909,0.03848448023200035
1711545079591020800,10.020020751953124,-0.00511599238961935,-0.031154103577136993,0.037262752652168274
1711545079609903400,10.0389033203125,0.00038179047987796366,-0.018325943499803543,0.013439024798572063
1711545079628786000,10.057785888671875,0.004657844081521034,-0.006108647678047419,-0.010995565913617611
1711545079647668700,10.076668701171876,0.008933897130191326,0.004886918235570192,-0.031154103577136993
1711545079666551300,10.09555126953125,0.013209951110184193,0.000610864779446274,-0.021991131827235222
1711545079685433900,10.114433837890624,0.0034361144062131643,-0.01282816007733345,0.017715077847242355
1711545079704316400,10.13331640625,-0.01977674663066864,-0.011606430634856224,0.053756099194288254
1711545079723199200,10.15219921875,-0.034437503665685654,-0.01893680728971958,0.053145237267017365
1711545079742081800,10.171081787109374,-0.02649625949561596,-0.010995565913617611,0.0409279391169548
1711545079760964400,10.18996435546875,-0.023441936820745468,0.0030543238390237093,0.02626718580722809
1711545079779847200,10.20884716796875,-0.024052800610661507,0.0409279391169548,0.009162971749901772
1711545079798729700,10.227729736328126,-0.023441936820745468,0.05253437161445618,0
1711545079817612300,10.2466123046875,-0.04604393243789673,0.04276053607463837,-0.008552107028663158
1711545079836495000,10.2654951171875,-0.05826122686266899,0.11545344442129135,-0.01954767294228077
1711545079855377700,10.284377685546875,-0.043600473552942276,0.09651663154363632,-0.029932374134659767
1711545079874260200,10.30326025390625,-0.020998476073145866,0.011606430634856224,-0.008552107028663158
1711545079893143000,10.32214306640625,-0.01977674663066864,-0.020158538594841957,0.02871064469218254
1711545079912025600,10.341025634765625,-0.03321577236056328,-0.014049889519810677,0.039706211537122726
1711545079930908200,10.359908203125,-0.024663666263222694,-0.01282816007733345,0.028099779039621353
1711545079949791000,10.378791015625,-0.002672533504664898,-0.020769402384757996,-0.001221729558892548
1711545079968673500,10.397673583984375,0.017486004158854485,-0.03176496922969818,-0.021991131827235222
1711545079987556000,10.41655615234375,0.013820815831422806,-0.0360410213470459,-0.031154103577136993
1711545080006438700,10.435438720703125,0.0016035200096666813,-0.029932374134659767,-0.037262752652168274
1711545080025321500,10.454321533203125,0.014431680552661419,-0.01954767294228077,-0.04581485688686371
1711545080044204000,10.4732041015625,0.033368486911058426,-0.006719512399286032,-0.02932151034474373
1711545080063086600,10.492086669921875,0.0193185992538929,0.046425722539424896,0.024434590712189674
1711545080081969400,10.510969482421874,-0.01977674663066864,0.0720820426940918,0.08307760953903198
1711545080100852000,10.52985205078125,-0.04298960790038109,0.050090912729501724,0.09834922850131989
1711545080119734500,10.548734619140625,-0.025274530053138733,0.033597562462091446,0.0720820426940918
1711545080138617300,10.567617431640626,0.002825249684974551,0.07391463965177536,0.027488915249705315
1711545080157500000,10.5865,0.00954476185142994,0.11178825795650482,-0.017715077847242355
1711545080176382500,10.605382568359374,-0.00022907429956831038,0.12705987691879272,-0.05070177838206291
1711545080195265300,10.624265380859375,-0.03321577236056328,0.08796452730894089,-0.06597339361906052
1711545080214147800,10.64314794921875,-0.09918916970491409,0.033597562462091446,-0.05558869615197182
1711545080233030400,10.662030517578126,-0.14866921305656433,0.012217295356094837,-0.039706211537122726
1711545080251913200,10.680913330078125,-0.15355613827705383,-0.0030543238390237093,-0.04214967042207718
1711545080270795800,10.699795654296874,-0.13095413148403168,-0.013439024798572063,-0.06780599057674408
1711545080289678300,10.71867822265625,-0.11262819170951843,-0.0256563201546669,-0.12767073512077332
1711545080308561000,10.737560791015625,-0.09796743839979172,-0.009162971749901772,-0.19242240488529205
1711545080327443700,10.756443603515624,-0.09918916970491409,-0.034208428114652634,-0.2107483446598053
1711545080346326300,10.775326171875,-0.12667807936668396,-0.04276053607463837,-0.1844811588525772
1711545080365208800,10.794208740234374,-0.12789981067180634,-0.03481929376721382,-0.14294235408306122
1711545080384091600,10.813091552734376,-0.10285435616970062,-0.050090912729501724,-0.12950333952903748
1711545080402974200,10.83197412109375,-0.05520690605044365,-0.1233946830034256,-0.1588248461484909
1711545080421856800,10.850856689453124,0.0034361144062131643,-0.21685700118541718,-0.23823726177215576
1711545080440739600,10.869739501953125,0.06757691502571106,-0.22296564280986786,-0.3182605504989624
1711545080459622100,10.8886220703125,0.10056361556053162,-0.14721840620040894,-0.35735589265823364
1711545080478504700,10.907504638671876,0.0755181610584259,-0.08674279600381851,-0.35613417625427246
1711545080497387500,10.926387451171875,0.033979352563619614,-0.08857539296150208,-0.3078758418560028
1711545080516270000,10.94527001953125,-0.017944153398275375,-0.12095122784376144,-0.21258094906806946
1711545080535152600,10.964152587890625,-0.09796743839979172,-0.17287473380565643,-0.11911863088607788
1711545080554035500,10.983035400390625,-0.16943861544132233,-0.20341797173023224,-0.06475166976451874
1711545080572918000,11.00191796875,-0.23052509129047394,-0.19425499439239502,-0.04459312930703163
1711545080591800600,11.020800537109375,-0.2897789776325226,-0.18875721096992493,-0.03481929376721382
1711545080610683100,11.03968310546875,-0.3300960659980774,-0.16249002516269684,-0.004276053514331579
1711545080629566000,11.05856591796875,-0.34781113266944885,-0.12156209349632263,0.036651886999607086
1711545080648448500,11.077448486328125,-0.3392590284347534,-0.10018182545900345,0.06536252796649933
1711545080667331000,11.0963310546875,-0.2879463732242584,-0.10079269111156464,0.09162971377372742
1711545080686214000,11.1152138671875,-0.2421315312385559,-0.056199558079242706,0.09346231073141098
1711545080705096400,11.134096435546875,-0.20853395760059357,0.010384701192378998,0.06536252796649933
1711545080723979300,11.152979248046876,-0.1706603467464447,0.04153880476951599,0.007330377586185932
1711545080742861800,11.17186181640625,-0.13828451931476593,0.03787361457943916,-0.031154103577136993
1711545080761744400,11.190744384765624,-0.11201732605695724,0.046425722539424896,-0.018325943499803543
1711545080780627000,11.209626953125,-0.08147408813238144,0.06902772188186646,0.025045456364750862
1711545080799509800,11.228509765625,-0.056428633630275726,0.07635809481143951,0.043982263654470444
1711545080818392300,11.247392333984376,-0.043600473552942276,0.0922405794262886,0.011606430634856224
1711545080837275000,11.26627490234375,-0.028328854590654373,0.0720820426940918,-0.0513126403093338
1711545080856157700,11.28515771484375,-0.020387612283229828,0.06475166976451874,-0.10567960888147354
1711545080875040300,11.304040283203125,-0.000839939049910754,0.1386663019657135,-0.13561198115348816
1711545080893922800,11.3229228515625,0.05230529606342316,0.2981020212173462,-0.12950333952903748
1711545080912805600,11.3418056640625,0.10483966767787933,0.3964512348175049,-0.1178968995809555
1711545080931688200,11.360688232421875,0.12499820441007614,0.33169957995414734,-0.1185077652335167
1711545080950570800,11.37957080078125,0.15493057668209076,0.2156352698802948,-0.12278381735086441
1711545080969453600,11.39845361328125,0.18669554591178894,0.13622283935546875,-0.1282816082239151
1711545080988336000,11.417336181640625,0.19708025455474854,0.08124501258134842,-0.16859868168830872
1711545081007218700,11.43621875,0.2086866796016693,0.18814635276794434,-0.18814635276794434
1711545081026101500,11.4551015625,0.24289511144161224,0.36224281787872314,-0.11056652665138245
1711545081044984000,11.473984130859375,0.25816673040390015,0.3433060050010681,-0.030543239787220955
1711545081063866600,11.49286669921875,0.23739732801914215,0.18203771114349365,-0.07330377399921417
1711545081082749200,11.511749267578125,0.20746494829654694,-0.0513126403093338,-0.22663083672523499
1711545081101632000,11.530632080078124,0.16592614352703094,-0.18875721096992493,-0.3555232882499695
1711545081120514600,11.5495146484375,0.1482110619544983,-0.14660754799842834,-0.3249800503253937
1711545081139397000,11.568397216796875,0.1683696061372757,-0.0409279391169548,-0.16859868168830872
1711545081158280000,11.587280029296876,0.21601705253124237,0.031154103577136993,0.03848448023200035
1711545081177162500,11.60616259765625,0.27343833446502686,-0.007330377586185932,0.20830489695072174
1711545081196045000,11.625045166015624,0.31436628103256226,-0.021991131827235222,0.35613417625427246
1711545081214927600,11.643927734375,0.2819904685020447,0.05253437161445618,0.5436696410179138
1711545081233810400,11.662810546875,0.14149154722690582,0.16798780858516693,0.7745765447616577
1711545081252693000,11.68169287109375,-0.05948295816779137,0.2522871494293213,0.9492838382720947
1711545081271575600,11.700575439453125,-0.2219729870557785,0.31031930446624756,0.9865466356277466
1711545081290458400,11.719458251953125,-0.33681556582450867,0.4007273018360138,0.8851430416107178
1711545081309341000,11.7383408203125,-0.4174497127532959,0.42394015192985535,0.6511818766593933
1711545081328223500,11.757223388671875,-0.46570804715156555,0.4153880476951599,0.3023780584335327
1711545081347106300,11.776106201171874,-0.45654505491256714,0.42943793535232544,-0.1081230640411377
1711545081365988900,11.79498876953125,-0.31787875294685364,0.44837474822998047,-0.4862483739852905
1711545081384871400,11.813871337890625,-0.2745073735713959,0.4557051360607147,-0.667064368724823
1711545081403754200,11.832754150390626,0.09445496648550034,0.618806004524231,-0.5491674542427063
1711545081422636800,11.85163671875,0.5849793553352356,0.554665207862854,-0.3995055556297302
1711545081441519400,11.870519287109374,0.7621301412582397,0.26511532068252563,-0.318871408700943
1711545081460402200,11.889402099609375,0.6430115103721619,0.05803215503692627,-0.2614501118659973
1711545081479284700,11.90828466796875,0.44203701615333557,0.10445787757635117,-0.24556763470172882
1711545081498167300,11.927167236328126,0.2349538654088974,0.2577849328517914,-0.3029889166355133
1711545081517049900,11.9460498046875,0.1268308013677597,0.2663370370864868,-0.39828383922576904
1711545081535932700,11.9649326171875,0.16409355401992798,0.2009745091199875,-0.43921178579330444
1711545081554815200,11.983815185546876,0.24350596964359283,0.08368847519159317,-0.41844236850738525
1711545081573697800,12.00269775390625,0.2496146261692047,-0.043982263654470444,-0.3481929302215576
1711545081592580600,12.02158056640625,0.18974986672401428,-0.1331685185432434,-0.24495677649974823
1711545081611463200,12.040463134765625,0.07918334752321243,-0.16676609218120575,-0.12583814561367035
1711545081630345700,12.059345703125,-0.040546149015426636,-0.11606431007385254,0.037262752652168274
1711545081649228300,12.078228271484376,-0.12606722116470337,-0.0665842592716217,0.2101374864578247
1711545081668111000,12.097111083984375,-0.14744748175144196,-0.10995566099882126,0.30115634202957153
1711545081686993700,12.11599365234375,-0.11201732605695724,-0.12644900381565094,0.3139844834804535
1711545081705876200,12.134876220703125,-0.08269581943750381,-0.06414080411195755,0.3127627670764923
1711545081724759000,12.153759033203125,-0.09063705801963806,-0.0256563201546669,0.2926042377948761
1711545081743641600,12.1726416015625,-0.10285435616970062,-0.06963858753442764,0.2412915825843811
1711545081762524200,12.191524169921875,-0.10102175921201706,-0.05070177838206291,0.22357651591300964
1711545081781406700,12.21040673828125,-0.10774127393960953,0.09040798991918564,0.2938259541988373
1711545081800289500,12.22928955078125,-0.1297324001789093,0.09651663154363632,0.3481929302215576
1711545081819172000,12.248172119140625,-0.11873684078454971,-0.09651663154363632,0.29504770040512085
1711545081838054700,12.2670546875,-0.07414371520280838,-0.3329212963581085,0.17653992772102356
1711545081856937200,12.285937255859375,-0.03138317912817001,-0.5009090900421143,0.07635809481143951
1711545081875820000,12.304820068359374,-0.011224640533328056,-0.5400044918060303,0.10629047453403473
1711545081894702600,12.32370263671875,-0.003283398225903511,-0.44409868121147156,0.27855435013771057
1711545081913585200,12.342585205078125,-0.002672533504664898,-0.17776164412498474,0.5839866995811462
1711545081932468000,12.361468017578124,-0.09246965497732162,0.07024945318698883,0.7666352987289429
1711545081951350500,12.3803505859375,-0.21097742021083832,-0.06414080411195755,0.5687150955200195
1711545081970233000,12.399233154296875,-0.2671769857406616,-0.4153880476951599,0.05803215503692627
1711545081989115600,12.41811572265625,-0.2537379562854767,-0.4972439408302307,-0.3787361681461334
1711545082007998500,12.43699853515625,-0.11201732605695724,-0.41294458508491516,-0.3958403766155243
1711545082026881000,12.455881103515624,0.09262236952781677,-0.0818558782339096,0.027488915249705315
1711545082045763600,12.474763671875,0.11400263756513596,0.4276053309440613,0.6334667801856995
1711545082064646400,12.493646484375,-0.11507165431976318,0.5057960152626038,1.1032217741012573
1711545082083529000,12.512529052734376,-0.34231334924697876,0.1954767256975174,1.2076796293258667
1711545082102411500,12.53141162109375,-0.5109120011329651,0.030543239787220955,0.9669989347457886
1711545082121294000,12.550294189453124,-0.6025417447090149,0.029932374134659767,0.554665207862854
1711545082140176600,12.5691767578125,-0.4901426136493683,0.12767073512077332,0.16737695038318634
1711545082159059500,12.5880595703125,-0.20486877858638763,0.3225366175174713,-0.20952661335468292
1711545082177942000,12.60694189453125,0.19524765014648438,0.258395791053772,-0.6126973628997803
1711545082196824600,12.625824462890625,0.5568795800209045,-0.1081230640411377,-0.9144645929336548
1711545082215707400,12.644707275390624,0.572151243686676,-0.5681042671203613,-0.9792162179946899
1711545082234590000,12.66358984375,0.3021489977836609,-0.8570432662963867,-0.8405499458312988
1711545082253472500,12.682472412109375,-0.06436987966299057,-0.5485565662384033,-0.5387827157974243
1711545082272355000,12.70135498046875,-0.3795761168003082,0.018325943499803543,-0.18142683804035187
1711545082291238000,12.72023779296875,-0.4431060254573822,0.3066541254520416,0.14599667489528656
1711545082310120400,12.739120361328125,-0.2574031352996826,0.3072649836540222,0.3695732057094574
1711545082329003000,12.7580029296875,-0.03932442143559456,0.19730933010578156,0.47586366534233093
1711545082347885600,12.776885498046875,0.10361793637275696,0.17043127119541168,0.4679224193096161
1711545082366768400,12.795768310546874,0.18669554591178894,0.2461785078048706,0.3396408259868622
1711545082385651000,12.81465087890625,0.22151483595371246,0.3500255048274994,0.1185077652335167
1711545082404533500,12.833533447265625,0.23312127590179443,0.3549124300479889,-0.12461641430854797
1711545082423416000,12.852416015625,0.31436628103256226,0.16310089826583862,-0.40744680166244507
1711545082442299000,12.871298828125,0.4059959948062897,0.26878049969673157,-0.6322450637817383
1711545082461181400,12.890181396484374,0.47380200028419495,0.27000224590301514,-0.6255255341529846
1711545082480064000,12.90906396484375,0.31986406445503235,0.16187916696071625,-0.5076286196708679
1711545082498946600,12.927946533203125,0.08468113094568253,-0.03237583488225937,-0.3426951467990875
1711545082517829400,12.946829345703126,-0.0888044685125351,-0.205861434340477,-0.20402882993221283
1711545082536712000,12.9657119140625,-0.2018144577741623,-0.34574946761131287,-0.15149445831775665
1711545082555594500,12.984594482421874,-0.2176969349384308,-0.25961753726005554,-0.09957095980644226
1711545082574477000,13.00347705078125,-0.08575014024972916,0.1637117564678192,0.06597339361906052
1711545082593359600,13.022359619140625,0.20318889617919922,0.6432406306266785,0.2968802750110626
1711545082612242400,13.041242431640624,0.4652498960494995,0.6750055551528931,0.337808221578598
1711545082631125000,13.060125,0.5605447888374329,0.3610210716724396,0.20158538222312927
1711545082650007600,13.079007568359375,0.377285361289978,-0.08552107214927673,0.004886918235570192
1711545082668890000,13.09789013671875,0.008323032408952713,-0.31520622968673706,-0.11545344442129135
1711545082687772700,13.116772705078125,-0.21891866624355316,-0.25900667905807495,-0.07757982611656189
1711545082706655500,13.135655517578124,-0.20547963678836823,0.07819069176912308,0.1233946830034256
1711545082725538000,13.1545380859375,-0.041157014667987823,0.35674503445625305,0.36835145950317383
1711545082744420600,13.173420654296875,0.2092975378036499,0.370184063911438,0.5381718873977661
1711545082763303200,13.19230322265625,0.36567893624305725,0.3280344009399414,0.6029235124588013
1711545082782186000,13.21118603515625,0.28382304310798645,0.41294458508491516,0.5949822664260864
1711545082801068500,13.230068603515624,0.09812015295028687,0.4929678738117218,0.5112938284873962
1711545082819951000,13.248951171875,-0.03993528336286545,0.46914416551589966,0.31031930446624756
1711545082838833700,13.267833740234375,-0.0784197673201561,0.32681265473365784,-0.002443459117785096
1711545082857716200,13.28671630859375,-0.09980003535747528,0.10567960888147354,-0.33719736337661743
1711545082876599000,13.30559912109375,-0.17737986147403717,-0.059864748269319534,-0.593149721622467
1711545082895481600,13.324481689453124,-0.19570580124855042,-0.07635809481143951,-0.6725621223449707
1711545082914364200,13.3433642578125,-0.05948295816779137,-0.023212861269712448,-0.5619956254959106
1711545082933246700,13.362246826171875,0.1628718227148056,0.03298669680953026,-0.31459537148475647
1711545082952129300,13.38112939453125,0.36506807804107666,0.1380554437637329,-0.0616973415017128
1711545082971012000,13.40001220703125,0.4554760456085205,0.2932150959968567,0.10323614627122879
1711545082989895000,13.41889501953125,0.409661203622818,0.32009315490722656,0.13011419773101807
1711545083008777500,13.437777587890626,0.22640176117420197,0.2614501118659973,0.029932374134659767
1711545083027660000,13.456659912109375,-0.004505127668380737,0.12034036219120026,-0.17653992772102356
1711545083046542600,13.47554248046875,-0.14683662354946136,-0.030543239787220955,-0.4043924808502197
1711545083065425400,13.49442529296875,-0.14805835485458374,-0.1233946830034256,-0.47464191913604736
1711545083084308000,13.513307861328125,-0.06742420047521591,-0.09407317638397217,-0.34697118401527405
1711545083103190500,13.5321904296875,0.010155626572668552,0.0256563201546669,-0.13500112295150757
1711545083122073000,13.551072998046875,0.016875140368938446,0.08674279600381851,0.030543239787220955
1711545083140955600,13.56995556640625,-0.015500693581998348,0.049480047076940536,0.05436696484684944
1711545083159838500,13.58883837890625,-0.047265663743019104,-0.05436696484684944,-0.03481929376721382
1711545083178721000,13.607720947265625,-0.07475458085536957,-0.17715078592300415,-0.14660754799842834
1711545083197603600,13.626603515625,-0.08697187155485153,-0.2419024556875229,-0.17531819641590118
1711545083216486100,13.645486083984375,-0.09002619981765747,-0.2052505612373352,-0.09834922850131989
1711545083235368700,13.66436865234375,-0.07597630470991135,-0.1233946830034256,0.039706211537122726
1711545083254251300,13.683251220703125,-0.03810269013047218,-0.10567960888147354,0.1490510106086731
1711545083273134000,13.702134033203125,0.026038112118840218,-0.11728604137897491,0.2107483446598053
1711545083292016600,13.7210166015625,0.08956804871559143,-0.10506874322891235,0.2577849328517914
1711545083310899200,13.739899169921875,0.1579848974943161,-0.08674279600381851,0.32131487131118774
1711545083329781800,13.75878173828125,0.22151483595371246,-0.043371398001909256,0.3634645342826843
1711545083348664300,13.777664306640625,0.23861905932426453,-0.06414080411195755,0.28954991698265076
1711545083367547000,13.796546875,0.19769111275672913,-0.18203771114349365,0.08002328872680664
1711545083386429700,13.8154296875,0.12988512217998505,-0.2938259541988373,-0.16126830875873566
1711545083405312300,13.834312255859375,0.05352702736854553,-0.38667741417884827,-0.3194822669029236
1711545083424194800,13.85319482421875,0.026038112118840218,-0.40927940607070923,-0.2828303873538971
1711545083443077400,13.872077392578126,0.049250971525907516,-0.2718348205089569,-0.0409279391169548
1711545083461960000,13.8909599609375,0.04558578506112099,0.030543239787220955,0.32070401310920715
1711545083480842500,13.909842529296874,-0.05215258151292801,0.19364413619041443,0.5919279456138611
1711545083499725300,13.928725341796875,-0.16455170512199402,0.10934479534626007,0.6328558921813965
1711545083518608000,13.94760791015625,-0.2519053518772125,0.009162971749901772,0.4874700903892517
1711545083537490400,13.966490478515626,-0.3032180070877075,0.03848448023200035,0.27550002932548523
1711545083556373000,13.985373046875,-0.3099375069141388,0.13011419773101807,0.07941242307424545
1711545083575255600,14.004255615234374,-0.2830594778060913,0.143553227186203,-0.09651663154363632
1711545083594138000,14.02313818359375,-0.1810450553894043,0.017715077847242355,-0.3231474757194519
1711545083613020700,14.042020751953125,-0.00022907429956831038,-0.18325942754745483,-0.5992583632469177
1711545083631903500,14.060903564453126,0.19585852324962616,-0.2822195291519165,-0.8619301915168762
1711545083650786000,14.0797861328125,0.33024877309799194,-0.24556763470172882,-1.0195332765579224
1711545083669668600,14.098668701171874,0.34063348174095154,-0.1588248461484909,-1.0134246349334717
1711545083688551200,14.11755126953125,0.20624321699142456,0.031154103577136993,-0.8222240209579468
1711545083707433700,14.136433837890625,-0.00511599238961935,0.2364046722650528,-0.46486809849739075
1711545083726316300,14.15531640625,-0.15844304859638214,0.3433060050010681,0.009162971749901772
1711545083745198800,14.17419873046875,-0.17799071967601776,0.33597561717033386,0.4563159942626953
1711545083764081700,14.19308154296875,-0.09613484144210815,0.3426951467990875,0.7336485981941223
1711545083782964200,14.211964111328125,-0.01611155830323696,0.3488037884235382,0.7641918659210205
1711545083801846800,14.2308466796875,0.06696604937314987,0.3249800503253937,0.565049946308136
1711545083820729300,14.249729248046876,0.15187625586986542,0.28405213356018066,0.2370155304670334
1711545083839612000,14.26861181640625,0.21296273171901703,0.21807873249053955,-0.09101885557174683
1711545083858494500,14.287494384765624,0.26427537202835083,0.1282816082239151,-0.29626941680908203
1711545083877377000,14.306376953125,0.34063348174095154,0.1185077652335167,-0.3127627670764923
1711545083896259600,14.325259521484375,0.40721774101257324,0.19669845700263977,-0.19792018830776215
1711545083915142400,14.344142333984376,0.4157698452472687,0.18814635276794434,-0.10934479534626007
1711545083934025000,14.36302490234375,0.2764926850795746,-0.09162971377372742,-0.22907429933547974
1711545083952907500,14.381907470703124,0.08712458610534668,-0.3066541254520416,-0.4789179861545563
1711545083971790000,14.4007900390625,-0.02893971838057041,-0.17898337543010712,-0.5131264328956604
1711545083990672600,14.419672607421875,-0.06498073786497116,0.22907429933547974,-0.18692462146282196
1711545084009555200,14.43855517578125,0.013820815831422806,0.6860011219978333,0.34636032581329346
1711545084028437800,14.457437744140625,0.15920662879943848,0.7483093738555908,0.7788525819778442
1711545084047320300,14.4763203125,0.2856556475162506,0.6157516837120056,0.9596685767173767
1711545084066203000,14.495202880859376,0.3229183852672577,0.3805687427520752,0.8258891701698303
1711545084085085700,14.514085693359375,0.29970553517341614,0.18264856934547424,0.44898560643196106
1711545084103968300,14.53296826171875,0.22212570905685425,0.01893680728971958,-0.07880155742168427
1711545084122850800,14.551850830078125,0.1219438835978508,-0.12400554865598679,-0.5375609993934631
1711545084141733400,14.5707333984375,0.052916161715984344,-0.2162461280822754,-0.7226530313491821
1711545084160616000,14.589615966796876,0.07429642975330353,-0.277332603931427,-0.6316341757774353
1711545084179498500,14.60849853515625,0.1482110619544983,-0.14233149588108063,-0.30054548382759094
1711545084198381000,14.627381103515624,0.18608468770980835,0.19242240488529205,0.1178968995809555
1711545084217263600,14.646263671875,0.15554144978523254,0.3995055556297302,0.3909534513950348
1711545084236146200,14.665146240234375,0.10789398849010468,0.44837474822998047,0.4459312856197357
1711545084255028700,14.68402880859375,0.07185296714305878,0.40378162264823914,0.337808221578598
1711545084273911300,14.702911376953125,0.07857248187065125,0.30482152104377747,0.14049890637397766
1711545084292794000,14.721794189453124,0.13477204740047455,0.18081597983837128,-0.06902772188186646
1711545084311676700,14.7406767578125,0.1995237022638321,0.10873392969369888,-0.19608759880065918
1711545084330559200,14.759559326171875,0.21540619432926178,0.07330377399921417,-0.21135921776294708
1711545084349441800,14.77844189453125,0.17692171037197113,0.053756099194288254,-0.16065743565559387
1711545084368324400,14.797324462890625,0.13110685348510742,0.056199558079242706,-0.06719512492418289
1711545084387207000,14.81620703125,0.070631243288517,0.11423171311616898,0.05803215503692627
1711545084406089500,14.83508935546875,-0.00022907429956831038,0.16187916696071625,0.14721840620040894
1711545084424972000,14.853971923828125,-0.05520690605044365,0.13439024984836578,0.13927717506885529
1711545084443854600,14.8728544921875,-0.07964149862527847,0.06902772188186646,0.07819069176912308
1711545084462737200,14.891737060546875,-0.06864593178033829,0.02626718580722809,0.037262752652168274
1711545084481619700,14.91061962890625,-0.03993528336286545,-0.010995565913617611,0.0030543238390237093
1711545084500502300,14.929502197265625,-0.021609341725707054,-0.04153880476951599,-0.0409279391169548
1711545084519384800,14.948384765625,-0.04176788032054901,-0.08552107214927673,-0.06047561392188072
1711545084538267400,14.967267333984376,-0.09308052062988281,-0.09896009415388107,-0.021991131827235222
1711545084557150200,14.986150146484375,-0.1291215419769287,-0.06963858753442764,0.0360410213470459
1711545084576032800,15.00503271484375,-0.13889537751674652,-0.025045456364750862,0.08857539296150208
1711545084594915300,15.023915283203126,-0.14194969832897186,-0.007330377586185932,0.10445787757635117
1711545084613798000,15.0427978515625,-0.15722131729125977,-0.02626718580722809,0.0873536616563797
1711545084632680400,15.061680419921874,-0.18837542831897736,-0.06047561392188072,0.059864748269319534
1711545084651563000,15.08056298828125,-0.22319471836090088,-0.09468404203653336,0.025045456364750862
1711545084670445600,15.099445556640624,-0.24029892683029175,-0.11545344442129135,-0.027488915249705315
1711545084689328000,15.118328125,-0.23419028520584106,-0.1288924664258957,-0.11239911615848541
1711545084708210700,15.137210693359375,-0.22380557656288147,-0.14599667489528656,-0.19425499439239502
1711545084727093200,15.15609326171875,-0.21525347232818604,-0.16065743565559387,-0.2156352698802948
1711545084745975800,15.174975830078125,-0.19570580124855042,-0.16737695038318634,-0.15760311484336853
1711545084764858400,15.1938583984375,-0.16638429462909698,-0.14782927930355072,-0.08918625861406326
1711545084783741000,15.212740966796876,-0.13278673589229584,-0.12522727251052856,-0.049480047076940536
1711545084802623500,15.23162353515625,-0.1193477064371109,-0.1380554437637329,-0.07086031138896942
1711545084821506000,15.250506103515624,-0.12606722116470337,-0.18875721096992493,-0.13561198115348816
1711545084840388600,15.269388671875,-0.15905392169952393,-0.20647229254245758,-0.17287473380565643
1711545084859271200,15.288271240234375,-0.18471023440361023,-0.19792018830776215,-0.1588248461484909
1711545084878153700,15.30715380859375,-0.19998185336589813,-0.19242240488529205,-0.10995566099882126
1711545084897036300,15.326036376953125,-0.2225838601589203,-0.2052505612373352,-0.05192350596189499
1711545084915918800,15.3449189453125,-0.2525162398815155,-0.23762640357017517,-0.01588248461484909
1711545084934801400,15.363801513671875,-0.2635118067264557,-0.2577849328517914,-0.024434590712189674
1711545084953684000,15.38268408203125,-0.2635118067264557,-0.2419024556875229,-0.03909534588456154
1711545084972566500,15.40156640625,-0.29100072383880615,-0.21135921776294708,-0.053145237267017365
1711545084991449000,15.420448974609375,-0.3551415205001831,-0.23518294095993042,-0.08613193035125732
1711545085010331600,15.43933154296875,-0.40523242950439453,-0.2675587832927704,-0.10751219838857651
1711545085029214200,15.458214111328125,-0.38934993743896484,-0.3121519088745117,-0.1490510106086731
1711545085048096800,15.4770966796875,-0.2934441566467285,-0.4728093445301056,-0.2926042377948761
1711545085066979300,15.495979248046876,-0.1657734364271164,-0.6322450637817383,-0.5271763205528259
1711545085085862000,15.51486181640625,-0.12728895246982574,-0.7568614482879639,-0.7189878225326538
1711545085104744400,15.533744384765624,-0.21586434543132782,-0.8045089244842529,-0.7666352987289429
1711545085123627000,15.552626953125,-0.41867145895957947,-0.7012727856636047,-0.5723803043365479
1711545085142509600,15.571509521484375,-0.65935218334198,-0.44348782300949097,-0.1692095398902893
1711545085161392000,15.59039208984375,-0.7980184555053711,-0.2528980076313019,0.22785256803035736
1711545085180274700,15.609274658203125,-0.7864120602607727,-0.2412915825843811,0.4013381600379944
1711545085199157200,15.6281572265625,-0.7045561671257019,-0.30482152104377747,0.3610210716724396
1711545085218039800,15.647039794921875,-0.6220894455909729,-0.37140578031539917,0.21380266547203064
1711545085236922400,15.66592236328125,-0.5616137981414795,-0.3634645342826843,0.04153880476951599
1711545085255805000,15.684804931640626,-0.4895317554473877,-0.3225366175174713,-0.1130099818110466
1711545085274687500,15.7036875,-0.3807978332042694,-0.2822195291519165,-0.2467893660068512
1711545085293570000,15.722570068359374,-0.2690095901489258,-0.34086254239082336,-0.3744601011276245
1711545085312452600,15.74145263671875,-0.2323576956987381,-0.41294458508491516,-0.4789179861545563
1711545085331335200,15.760335205078125,-0.27695080637931824,-0.39217519760131836,-0.5412262082099915
1711545085350217700,15.7792177734375,-0.32704174518585205,-0.33719736337661743,-0.5332849621772766
1711545085369100300,15.798100341796875,-0.3667479455471039,-0.2828303873538971,-0.42821621894836426
1711545085387982800,15.81698291015625,-0.45104727149009705,-0.25411975383758545,-0.2510654330253601
1711545085406865400,15.835865478515625,-0.5493965148925781,-0.17043127119541168,-0.034208428114652634
1711545085425748000,15.854748046875,-0.5530617237091064,-0.06414080411195755,0.13744457066059113
1711545085444630500,15.873630615234376,-0.44616037607192993,0.008552107028663158,0.23396120965480804
1711545085463513000,15.89251318359375,-0.3258199989795685,-0.0054977829568088055,0.25534147024154663
1711545085482395600,15.911395751953124,-0.256792277097702,-0.034208428114652634,0.235793799161911
1711545085501278200,15.9302783203125,-0.26167920231819153,-0.05558869615197182,0.18570289015769958
1711545085520160800,15.949160888671875,-0.31665703654289246,-0.04886918142437935,0.09285144507884979
1711545085539043300,15.968043212890626,-0.3771326541900635,-0.03237583488225937,-0.01893680728971958
1711545085557926000,15.98692578125,-0.41011935472488403,-0.013439024798572063,-0.05558869615197182
1711545085576808400,16.005808349609374,-0.4107302129268646,0.001832594396546483,0.04214967042207718
1711545085595691000,16.02469091796875,-0.33192864060401917,0.05803215503692627,0.21746785938739777
1711545085614573600,16.043573486328125,-0.18715369701385498,0.11362084746360779,0.3970620930194855
1711545085633456000,16.0624560546875,-0.10651954263448715,-0.04825831577181816,0.35613417625427246
1711545085652338700,16.081338623046875,-0.1712712198495865,-0.4056142270565033,-0.03237583488225937
1711545085671221200,16.10022119140625,-0.2745073735713959,-0.5571087002754211,-0.4880809485912323
1711545085690103800,16.119103759765625,-0.3875173330307007,-0.4007273018360138,-0.6688969135284424
1711545085708986400,16.137986328125,-0.3545306324958801,-0.205861434340477,-0.5210676789283752
1711545085727869000,16.156868896484376,-0.06131555140018463,-0.05925388261675835,-0.12583814561367035
1711545085746751200,16.175751220703123,0.24778202176094055,0.018325943499803543,0.3451386094093323
1711545085765633800,16.1946337890625,0.25816673040390015,-0.001221729558892548,0.729983389377594
1711545085784516400,16.213516357421874,0.04130972921848297,-0.0665842592716217,0.9926552772521973
1711545085803399000,16.23239892578125,-0.226859912276268,-0.05192350596189499,1.0671807527542114
1711545085822281500,16.251281494140624,-0.45104727149009705,0.056810423731803894,0.9883792400360107
1711545085841164000,16.2701640625,-0.5805506110191345,0.1496618688106537,0.850934624671936
1711545085860046600,16.289046630859374,-0.6349175572395325,0.10079269111156464,0.6560688018798828
1711545085878929200,16.30792919921875,-0.6239219903945923,0.029932374134659767,0.411722868680954
1711545085897811700,16.326811767578125,-0.6104829907417297,-0.08063415437936783,0.0769689604640007
1711545085916694300,16.3456943359375,-0.6727911829948425,-0.06475166976451874,-0.2968802750110626
1711545085935576800,16.364576904296875,-0.6318632364273071,0.02260199747979641,-0.5992583632469177
1711545085954459400,16.38345947265625,-0.48647743463516235,-0.034208428114652634,-0.7733548283576965
1711545085973342000,16.402342041015626,-0.34170249104499817,-0.04581485688686371,-0.6847794055938721
1711545085992224300,16.421224365234377,-0.21464261412620544,-0.059864748269319534,-0.4202749729156494
1711545086011106800,16.44010693359375,-0.10774127393960953,-0.13255766034126282,-0.09834922850131989
1711545086029989400,16.4589892578125,-0.06742420047521591,-0.19730933010578156,0.15271618962287903
1711545086048872000,16.477871826171874,-0.07719803601503372,-0.20463970303535461,0.2730565667152405
1711545086067754500,16.49675439453125,-0.1443931609392166,-0.2101374864578247,0.2889390289783478
1711545086086637000,16.515636962890625,-0.26656612753868103,-0.2162461280822754,0.21930044889450073
1711545086105519600,16.53451953125,-0.4211149215698242,-0.21868959069252014,0.1288924664258957
1711545086124402200,16.553402099609375,-0.5347357392311096,-0.2107483446598053,0.03237583488225937
1711545086143284700,16.57228466796875,-0.5304597020149231,-0.2675587832927704,-0.1337793916463852
1711545086162167300,16.591167236328126,-0.5322923064231873,-0.19242240488529205,-0.2528980076313019
1711545086181049900,16.6100498046875,-0.441884309053421,-0.35613417625427246,-0.379347026348114
1711545086199932400,16.628932373046876,-0.5451204776763916,-0.5033525824546814,-0.6175842881202698
1711545086218814700,16.647814697265623,-0.42600181698799133,-0.44898560643196106,-0.6084213256835938
1711545086237697300,16.666697265625,-0.27633994817733765,-0.5998691916465759,-0.5051851868629456
1711545086256579800,16.685579833984374,-0.2683987021446228,-0.7562506198883057,-0.38240134716033936
1711545086275462400,16.70446240234375,-0.28611379861831665,-0.9169080257415771,-0.25350889563560486
1711545086294345000,16.723344970703124,-0.29222244024276733,-0.8875865340232849,-0.17715078592300415
1711545086313227500,16.7422275390625,-0.20914483070373535,-0.5375609993934631,-0.05742128938436508
1711545086332110000,16.761110107421874,0.004657844081521034,-0.3072649836540222,0.20280711352825165
1711545086350992400,16.779992431640625,0.2697731554508209,-0.16554436087608337,0.5070177912712097
1711545086369875000,16.798875,0.4102720618247986,-0.2926042377948761,0.5894845128059387
1711545086388757500,16.817757568359376,0.3901135325431824,-0.5748237371444702,0.4147771894931793
1711545086407640000,16.83664013671875,0.3082576394081116,-0.5760455131530762,0.2510654330253601
1711545086426522600,16.855522705078126,0.16470441222190857,-0.430659681558609,0.2516762912273407
1711545086445405200,16.8744052734375,-0.0631481483578682,-0.29993459582328796,0.4105011224746704
1711545086464287700,16.893287841796877,-0.2781725525856018,0.01954767294228077,0.7373138070106506
1711545086483170300,16.91217041015625,-0.3563632369041443,0.3585776388645172,1.0671807527542114
1711545086502052900,16.931052978515623,-0.28183773159980774,0.36224281787872314,1.1527018547058105
1711545086520935200,16.94993505859375,-0.19448406994342804,0.1282816082239151,0.9950987100601196
1711545086539817700,16.968817626953125,-0.19570580124855042,-0.1441640853881836,0.6010909676551819
1711545086558700300,16.9877001953125,-0.23480114340782166,-0.1802051067352295,-0.012217295356094837
1711545086577582800,17.006582763671876,-0.10774127393960953,0.10140355676412582,-0.6609556674957275
1711545086596465400,17.02546533203125,0.16165009140968323,0.3530798554420471,-1.035415768623352
1711545086615348000,17.044347900390626,0.3125337064266205,0.29626941680908203,-1.0231984853744507
1711545086634230500,17.06323046875,0.31986406445503235,0.10690133273601532,-0.648127555847168
1711545086653112800,17.08211279296875,0.2557232677936554,0.1490510106086731,-0.06475166976451874
1711545086671995400,17.100995361328124,0.13843722641468048,0.3182605504989624,0.43921178579330444
1711545086690878000,17.1198779296875,0.06146826967597008,0.40378162264823914,0.5821541547775269
1711545086709760500,17.138760498046874,0.024816380813717842,0.4935787320137024,0.4263836145401001
1711545086728643000,17.15764306640625,0.01870773360133171,0.535728394985199,0.10629047453403473
1711545086747525600,17.176525634765625,0.1115591824054718,0.5479456782341003,-0.23029601573944092
1711545086766408200,17.195408203125,0.33085963129997253,0.5180133581161499,-0.4667007029056549
1711545086785290500,17.21429052734375,0.5690969228744507,0.42271843552589417,-0.5522217750549316
1711545086804173000,17.233173095703126,0.6888263821601868,0.29565855860710144,-0.49663305282592773
1711545086823055600,17.2520556640625,0.6833286285400391,0.2809978127479553,-0.28527384996414185
1711545086841938200,17.270938232421877,0.553214430809021,0.3799578845500946,-0.014049889519810677
1711545086860820700,17.28982080078125,0.367511510848999,0.4159989058971405,0.13744457066059113
1711545086879703300,17.308703369140623,0.2349538654088974,0.3298669755458832,0.08429934084415436
1711545086898585600,17.327585693359374,0.16226094961166382,0.17531819641590118,-0.10384701192378998
1711545086917468200,17.34646826171875,0.15859577059745789,0.13011419773101807,-0.29016077518463135
1711545086936350700,17.365350830078125,0.23617559671401978,0.2620609998703003,-0.32070401310920715
1711545086955233300,17.3842333984375,0.42310020327568054,0.5882627964019775,-0.04581485688686371
1711545086974115800,17.40311572265625,0.6301833987236023,0.7244856357574463,0.2889390289783478
1711545086992998400,17.421998291015626,0.7010436654090881,0.2919933497905731,0.28405213356018066
1711545087011880700,17.440880615234374,0.5709294676780701,-0.3652971386909485,-0.001221729558892548
1711545087030763300,17.45976318359375,0.29420775175094604,-0.6291907429695129,-0.3017672002315521
1711545087049645800,17.478645751953124,0.033368486911058426,-0.3897317349910736,-0.40255987644195557
1711545087068528400,17.4975283203125,-0.05826122686266899,0.2370155304670334,-0.11728604137897491
1711545087087411000,17.516410888671874,0.024205517023801804,0.8918625712394714,0.4172206521034241
1711545087106293200,17.535293212890625,0.224569171667099,1.2009601593017578,0.8686497211456299
1711545087125175800,17.55417578125,0.43287405371665955,1.212566614151001,1.08978271484375
1711545087144058400,17.573058349609376,0.4872410297393799,1.0567960739135742,1.0592395067214966
1711545087162941000,17.59194091796875,0.368122398853302,0.7641918659210205,0.7513636946678162
1711545087181823500,17.610823486328126,0.256334125995636,0.4563159942626953,0.22235478460788727
1711545087200705800,17.629705810546874,0.27832525968551636,0.27488914132118225,-0.3909534513950348
1711545087219588400,17.64858837890625,0.40782859921455383,0.33597561717033386,-0.9040798544883728
1711545087238471000,17.667470947265624,0.5287798047065735,0.4618137776851654,-1.1502584218978882
1711545087257353500,17.686353515625,0.5898662805557251,0.48502662777900696,-1.1087195873260498
1711545087276236000,17.705236083984374,0.6478984355926514,0.3842339515686035,-0.8637627959251404
1711545087295118300,17.724118408203125,0.6833286285400391,0.2522871494293213,-0.5021308660507202
1711545087314001000,17.7430009765625,0.6155226230621338,0.2211330533027649,-0.10629047453403473
1711545087332883500,17.761883544921876,0.441426157951355,0.2834412455558777,0.14538581669330597
1711545087351766000,17.78076611328125,0.245338574051857,0.3909534513950348,0.19425499439239502
1711545087370648300,17.7996484375,0.11278090626001358,0.4361574649810791,0.12767073512077332
1711545087389531000,17.81853076171875,0.049861837178468704,0.4013381600379944,0.01588248461484909
1711545087408413400,17.837413330078125,0.046807512640953064,0.3084867000579834,-0.12583814561367035
1711545087427296000,17.8562958984375,0.12072215229272842,0.24495677649974823,-0.2528980076313019
1711545087446178600,17.875178466796875,0.2502254843711853,0.17837251722812653,-0.33719736337661743
1711545087465061000,17.89406103515625,0.3528507649898529,0.06841685622930527,-0.3634645342826843
1711545087483943400,17.912943359375,0.34552037715911865,-0.010995565913617611,-0.2974911332130432
1711545087502826000,17.931825927734376,0.2251800298690796,-0.004886918235570192,-0.12156209349632263
1711545087521708500,17.95070849609375,0.06268999725580215,-0.03909534588456154,0.021991131827235222
1711545087540591000,17.969591064453127,-0.02283107116818428,-0.2003636509180069,-0.05192350596189499
1711545087559473400,17.988473388671874,0.02176205813884735,-0.30970844626426697,-0.26511532068252563
1711545087578356000,18.00735595703125,0.15859577059745789,-0.3426951467990875,-0.46608981490135193
1711545087597238500,18.026238525390625,0.3119228184223175,-0.3610210716724396,-0.4880809485912323
1711545087616121000,18.04512109375,0.35590508580207825,-0.48930269479751587,-0.28954991698265076
1711545087635003400,18.06400341796875,0.24717116355895996,-0.5296197533607483,0.007330377586185932
1711545087653886000,18.082885986328126,0.1011744812130928,-0.3836230933666229,0.24434591829776764
1711545087672768500,18.1017685546875,-0.03260490670800209,-0.18081597983837128,0.36712974309921265
1711545087691651000,18.120651123046876,-0.1816559135913849,-0.02871064469218254,0.5033525824546814
1711545087710533400,18.139533447265624,-0.32826346158981323,0.21991132199764252,0.7880155444145203
1711545087729416000,18.158416015625,-0.3753000497817993,0.5381718873977661,1.1111630201339722
1711545087748298500,18.177298583984374,-0.3258199989795685,0.5968148708343506,1.2553271055221558
1711545087767181000,18.19618115234375,-0.27511823177337646,0.3341430425643921,1.119104266166687
1711545087786063600,18.215063720703125,-0.2635118067264557,0.012217295356094837,0.7867938280105591
1711545087804946000,18.23394580078125,-0.30688318610191345,-0.10690133273601532,0.33231043815612793
1711545087823828500,18.252828369140627,-0.28000515699386597,0.024434590712189674,-0.23457208275794983
1711545087842711000,18.2717109375,-0.04298960790038109,0.14049890637397766,-0.860708475112915
1711545087861593300,18.29059326171875,0.20135630667209625,-0.010995565913617611,-1.3371829986572266
1711545087880476000,18.309475830078124,0.18058690428733826,-0.4367683231830597,-1.4361430406570435
1711545087899358500,18.3283583984375,-0.027107125148177147,-0.7354812026023865,-1.0885610580444336
1711545087918241000,18.347240966796875,-0.23663374781608582,-0.46425724029541016,-0.4007273018360138
1711545087937123300,18.366123291015626,-0.3649153411388397,0.09101885557174683,0.30543237924575806
1711545087956006000,18.385005859375,-0.35391977429389954,0.32559093832969666,0.6029235124588013
1711545087974888400,18.403888427734376,-0.2830594778060913,0.4153880476951599,0.5528326034545898
1711545087993771000,18.42277099609375,-0.18959715962409973,0.38301220536231995,0.33597561717033386
1711545088012653300,18.4416533203125,-0.06742420047521591,0.34147340059280396,0.09040798991918564
1711545088031535900,18.460535888671874,0.06391172856092453,0.23335035145282745,-0.13500112295150757
1711545088050418400,18.47941845703125,0.16959133744239807,0.0720820426940918,-0.2919933497905731
1711545088069301000,18.498301025390624,0.24289511144161224,-0.0030543238390237093,-0.3127627670764923
1711545088088183300,18.517183349609375,0.24228423833847046,0.026878049597144127,-0.20708316564559937
1711545088107065900,18.53606591796875,0.1323285847902298,0.12278381735086441,-0.012217295356094837
1711545088125948400,18.554948486328126,-0.06498073786497116,0.10751219838857651,0.1380554437637329
1711545088144830700,18.573830810546873,-0.23113596439361572,-0.056810423731803894,0.12278381735086441
1711545088163713300,18.59271337890625,-0.3001636862754822,-0.1747073233127594,0.003665188793092966
1711545088182595800,18.611595947265624,-0.2989419400691986,-0.14233149588108063,-0.13927717506885529
1711545088201478400,18.630478515625,-0.24335326254367828,-0.020769402384757996,-0.19303326308727264
1711545088220360700,18.649360595703126,-0.11690424382686615,0.1802051067352295,-0.04153880476951599
1711545088239243300,18.6682431640625,0.11827868968248367,0.3481929302215576,0.2675587832927704
1711545088258125800,18.687125732421876,0.25327980518341064,-0.036651886999607086,0.32559093832969666
1711545088277008100,18.706008056640623,0.20135630667209625,-0.7067705392837524,0.07330377399921417
1711545088295890700,18.724890625,-0.02283107116818428,-1.092226266860962,-0.2761108875274658
1711545088314773200,18.743773193359374,-0.35880669951438904,-0.9511164426803589,-0.4520399272441864
1711545088333655800,18.76265576171875,-0.6581304669380188,-0.4172206521034241,-0.23762640357017517
1711545088352538000,18.7815380859375,-0.7387645840644836,0.22235478460788727,0.31154105067253113
1711545088371420700,18.800420654296875,-0.5493965148925781,0.6224712133407593,0.9315688014030457
1711545088390303200,18.81930322265625,-0.22991423308849335,0.4978547990322113,1.255937933921814
1711545088409185500,18.838185546875,0.046196650713682175,0.003665188793092966,1.1325433254241943
1711545088428068000,18.857068115234377,0.08040507882833481,-0.3445277214050293,0.6768381595611572
1711545088446950700,18.87595068359375,-0.23663374781608582,-0.4263836145401001,0.03298669680953026
1711545088465833000,18.8948330078125,-0.5897135734558105,-0.2730565667152405,-0.5693259835243225
1711545088484715500,18.913715576171874,-0.6318632364273071,-0.003665188793092966,-0.9053016304969788
1711545088503598000,18.93259814453125,-0.42050403356552124,0.09407317638397217,-0.9596685767173767
1711545088522480600,18.951480712890625,-0.15355613827705383,-0.029932374134659767,-0.7238747477531433
1711545088541363000,18.970363037109376,0.0016035200096666813,-0.164322629570961,-0.2932150959968567
1711545088560245500,18.98924560546875,-0.00022907429956831038,-0.25411975383758545,0.1649334877729416
1711545088579128000,19.008128173828126,-0.11201732605695724,-0.32009315490722656,0.4422661066055298
1711545088598010400,19.02701025390625,-0.30627232789993286,-0.39400777220726013,0.47952884435653687
1711545088616893000,19.045892822265625,-0.557337760925293,-0.5051851868629456,0.33658650517463684
1711545088635775500,19.064775390625,-0.7882446646690369,-0.6175842881202698,0.0616973415017128
1711545088654658000,19.083657958984375,-0.9342412948608398,-0.7715222239494324,-0.2816086709499359
1711545088673540400,19.102540283203126,-0.9672279953956604,-0.9303470849990845,-0.5210676789283752
1711545088692423000,19.1214228515625,-0.917137086391449,-0.9908226728439331,-0.49480047821998596
1711545088711305200,19.14030517578125,-0.87254399061203,-0.915686309337616,-0.21135921776294708
1711545088730187800,19.159187744140624,-0.9098067283630371,-0.8600975871086121,0.08674279600381851
1711545088749070300,19.1780703125,-1.003269076347351,-0.9456186890602112,0.143553227186203
1711545088767953000,19.196952880859374,-1.0887900590896606,-1.0372483730316162,0.010384701192378998
1711545088786835200,19.215835205078125,-1.1773655414581299,-1.05496346950531,-0.16615521907806396
1711545088805717800,19.2347177734375,-1.2060761451721191,-0.9816597104072571,-0.2522871494293213
1711545088824600300,19.253600341796876,-1.159650444984436,-0.963333785533905,-0.2822195291519165
1711545088843482600,19.272482666015627,-1.0619120597839355,-1.0036507844924927,-0.28038692474365234
1711545088862365200,19.291365234375,-0.9989929795265198,-1.045189619064331,-0.2309068888425827
1711545088881247500,19.31024755859375,-1.020984172821045,-1.0238093137741089,-0.11056652665138245
1711545088900130000,19.329130126953125,-1.0961204767227173,-0.9896009564399719,0.05864302068948746
1711545088919012600,19.3480126953125,-1.1999675035476685,-0.9804379940032959,0.20341797173023224
1711545088937895200,19.366895263671875,-1.3038145303726196,-0.9718858599662781,0.2577849328517914
1711545088956777500,19.385777587890626,-1.378950834274292,-0.9816597104072571,0.22968515753746033
1711545088975660000,19.404659912109373,-1.4333178997039795,-1.0244202613830566,0.15760311484336853
1711545088994542300,19.423542236328124,-1.443091630935669,-1.119104266166687,0.07147117704153061
1711545089013425000,19.4424248046875,-1.4394265413284302,-1.1459823846817017,-0.014660755172371864
1711545089032307500,19.461307373046875,-1.454087257385254,-1.1624757051467896,-0.1539379209280014
1711545089051189800,19.480189697265626,-1.4235440492630005,-1.2565488815307617,-0.36224281787872314
1711545089070072300,19.499072265625,-1.2451715469360352,-1.1948515176773071,-0.5009090900421143
1711545089088955000,19.517954833984376,-0.936684787273407,-0.8381064534187317,-0.3481929302215576
1711545089107837200,19.536837158203124,-0.7253255844116211,-0.46425724029541016,0.02626718580722809
1711545089126719700,19.5557197265625,-0.7491493225097656,-0.3646862804889679,0.33169957995414734
1711545089145602300,19.574602294921874,-0.8768200278282166,-0.41355544328689575,0.49541133642196655
1711545089164484600,19.593484619140625,-1.0160971879959106,-0.4508182108402252,0.5436696410179138
1711545089183367200,19.6123671875,-1.0777945518493652,-0.5057960152626038,0.4880809485912323
1711545089202249700,19.631249755859375,-1.0429753065109253,-0.5693259835243225,0.3854556679725647
1711545089221132000,19.650132080078127,-0.955621600151062,-0.6878337264060974,0.2211330533027649
1711545089240014600,19.6690146484375,-0.824896514415741,-0.851545512676239,-0.004276053514331579
1711545089258897200,19.687897216796873,-0.7375428676605225,-0.9682206511497498,-0.21930044889450073
1711545089277779500,19.706779541015624,-0.7595340013504028,-1.0030399560928345,-0.33047783374786377
1711545089296662000,19.725662109375,-0.8084031939506531,-0.9645555019378662,-0.33169957995414734
1711545089315544300,19.74454443359375,-0.834059476852417,-0.8662062287330627,-0.22235478460788727
1711545089334427000,19.763427001953126,-0.7931315302848816,-0.7562506198883057,-0.01282816007733345
1711545089353309400,19.782309326171877,-0.6984475255012512,-0.6682860851287842,0.20830489695072174
1711545089372191700,19.801191650390624,-0.6165916323661804,-0.5907062292098999,0.32192572951316833
1711545089391074300,19.82007421875,-0.5231293439865112,-0.500298261642456,0.30482152104377747
1711545089409956900,19.838956787109375,-0.3930151164531708,-0.3909534513950348,0.23212862014770508
1711545089428839200,19.857839111328126,-0.2885572612285614,-0.33597561717033386,0.16615521907806396
1711545089447721700,19.8767216796875,-0.21891866624355316,-0.33536475896835327,0.12095122784376144
1711545089466604300,19.895604248046876,-0.16332997381687164,-0.33536475896835327,0.1130099818110466
1711545089485486600,19.914486572265623,-0.1657734364271164,-0.39339691400527954,0.10751219838857651
1711545089504369200,19.933369140625,-0.23846633732318878,-0.5302306413650513,0.05253437161445618
1711545089523251500,19.95225146484375,-0.36369362473487854,-0.6334667801856995,-0.0360410213470459
1711545089542134000,19.971134033203125,-0.46631890535354614,-0.5534434914588928,-0.037262752652168274
1711545089561016600,19.9900166015625,-0.5078576803207397,-0.36835145950317383,0.07574722915887833
1711545089579899000,20.00889892578125,-0.5084685683250427,-0.2822195291519165,0.1954767256975174
1711545089598781400,20.027781494140626,-0.5084685683250427,-0.35185810923576355,0.23823726177215576
1711545089617663700,20.046663818359374,-0.5237401723861694,-0.45326167345046997,0.2370155304670334
1711545089636546300,20.06554638671875,-0.537790060043335,-0.5106829404830933,0.1692095398902893
1711545089655428900,20.084428955078124,-0.5219075679779053,-0.4978547990322113,0.03481929376721382
1711545089674311200,20.103311279296875,-0.4797579348087311,-0.46425724029541016,-0.10995566099882126
1711545089693193700,20.12219384765625,-0.391182541847229,-0.4159989058971405,-0.16065743565559387
1711545089712076000,20.141075927734374,-0.2641226649284363,-0.41233372688293457,-0.15271618962287903
1711545089730958600,20.15995849609375,-0.07475458085536957,-0.3695732057094574,-0.10018182545900345
1711545089749841200,20.178841064453124,0.11278090626001358,-0.2657261788845062,-0.01282816007733345
1711545089768723500,20.197723388671875,0.20502148568630219,-0.143553227186203,0.0922405794262886
1711545089787606000,20.21660595703125,0.18669554591178894,-0.08368847519159317,0.16859868168830872
1711545089806488300,20.23548828125,0.11217004805803299,-0.08796452730894089,0.19853104650974274
1711545089825371000,20.254370849609376,0.011988221667706966,-0.08796452730894089,0.21991132199764252
1711545089844253400,20.27325341796875,-0.08452841639518738,-0.059864748269319534,0.2211330533027649
1711545089863135700,20.2921357421875,-0.17493639886379242,-0.0769689604640007,0.12705987691879272
1711545089882018300,20.311018310546874,-0.26595523953437805,-0.17898337543010712,-0.03848448023200035
1711545089900900900,20.32990087890625,-0.3453676700592041,-0.2632827162742615,-0.15088360011577606
1711545089919783200,20.348783203125,-0.3600284159183502,-0.23457208275794983,-0.11056652665138245
1711545089938665700,20.367665771484376,-0.30688318610191345,-0.15149445831775665,-0.015271619893610477
1711545089957548000,20.386548095703127,-0.18471023440361023,-0.09651663154363632,0.017715077847242355
1711545089976430600,20.4054306640625,-0.030161447823047638,-0.05436696484684944,-0.02260199747979641
1711545089995313200,20.424313232421873,0.11522436887025833,-0.03543015569448471,-0.09651663154363632
1711545090014195500,20.443195556640624,0.22395829856395721,-0.011606430634856224,-0.1233946830034256
1711545090033078000,20.462078125,0.27404922246932983,0.021991131827235222,-0.07513637095689774
1711545090051960300,20.480960205078127,0.2856556475162506,0.07024945318698883,0.009773836471140385
1711545090070843000,20.4998427734375,0.2746600806713104,0.13439024984836578,0.07880155742168427
1711545090089725200,20.51872509765625,0.25205808877944946,0.17837251722812653,0.09101885557174683
1711545090108607700,20.537607666015624,0.22090397775173187,0.17226386070251465,0.049480047076940536
1711545090127490300,20.556490234375,0.17753258347511292,0.1484401375055313,-0.002443459117785096
1711545090146372600,20.57537255859375,0.13477204740047455,0.15760311484336853,-0.015271619893610477
1711545090165255200,20.594255126953126,0.11400263756513596,0.16676609218120575,-0.020769402384757996
1711545090184137500,20.613137451171873,0.10911571979522705,0.13622283935546875,-0.05070177838206291
1711545090203020000,20.63202001953125,0.0907897800207138,0.09896009415388107,-0.0922405794262886
1711545090221902300,20.65090234375,0.05169443041086197,0.08491020649671555,-0.10506874322891235
1711545090240785000,20.669784912109375,0.019929463043808937,0.09529490768909454,-0.0818558782339096
1711545090259667500,20.68866748046875,0.0058795735239982605,0.10323614627122879,-0.04825831577181816
1711545090278549800,20.7075498046875,-0.001450803829357028,0.09834922850131989,-0.033597562462091446
1711545090297432300,20.726432373046876,-0.006337722297757864,0.09834922850131989,-0.03298669680953026
1711545090316314600,20.745314697265623,-0.000839939049910754,0.09162971377372742,-0.03848448023200035
1711545090335197200,20.764197265625,0.021151192486286163,0.08307760953903198,-0.056810423731803894
1711545090354079500,20.78307958984375,0.049250971525907516,0.07330377399921417,-0.07391463965177536
1711545090372962000,20.801962158203125,0.05474875494837761,0.07086031138896942,-0.07513637095689774
1711545090391844600,20.8208447265625,0.04436405375599861,0.08491020649671555,-0.03543015569448471
1711545090410727000,20.839726806640623,0.016875140368938446,0.08857539296150208,0.01649334840476513
1711545090429609500,20.858609375,-0.025274530053138733,0.08124501258134842,0.033597562462091446
1711545090448491800,20.87749169921875,-0.050319984555244446,0.06902772188186646,0.018325943499803543
1711545090467374300,20.896374267578125,-0.06864593178033829,0.050090912729501724,-0.007941242307424545
1711545090486256600,20.915256591796876,-0.09613484144210815,0.046425722539424896,-0.015271619893610477
1711545090505139200,20.93413916015625,-0.11323905736207962,0.017715077847242355,-0.023823726922273636
1711545090524021500,20.953021484375,-0.11751510947942734,-0.017715077847242355,-0.0616973415017128
1711545090542904000,20.971904052734374,-0.13278673589229584,-0.04459312930703163,-0.10018182545900345
1711545090561786600,20.99078662109375,-0.16821688413619995,-0.043371398001909256,-0.12400554865598679
1711545090580669000,21.0096689453125,-0.20303617417812347,-0.04153880476951599,-0.12644900381565094
1711545090599551500,21.028551513671875,-0.20975568890571594,-0.08307760953903198,-0.11667517572641373
1711545090618433800,21.047433837890626,-0.15294526517391205,-0.13072505593299866,-0.08002328872680664
1711545090637316400,21.06631640625,-0.09918916970491409,-0.1380554437637329,-0.05742128938436508
1711545090656198700,21.08519873046875,-0.06925679743289948,-0.09712749719619751,-0.06963858753442764
1711545090675081200,21.104081298828124,-0.06864593178033829,-0.05070177838206291,-0.0977383628487587
1711545090693963800,21.1229638671875,-0.08452841639518738,-0.0409279391169548,-0.11484257876873016
1711545090712846000,21.14184619140625,-0.10102175921201706,-0.07269290834665298,-0.12461641430854797
1711545090731728600,21.160728759765625,-0.11568251997232437,-0.09285144507884979,-0.13988803327083588
1711545090750611000,21.17961083984375,-0.12728895246982574,-0.09957095980644226,-0.17287473380565643
1711545090769493500,21.198493408203124,-0.13156500458717346,-0.09346231073141098,-0.2205221801996231
1711545090788375800,21.217375732421875,-0.13767364621162415,-0.08979712426662445,-0.24862197041511536
1711545090807258400,21.23625830078125,-0.1443931609392166,-0.12461641430854797,-0.23823726177215576
1711545090826140700,21.255140625,-0.14256057143211365,-0.1747073233127594,-0.19853104650974274
1711545090845023200,21.274023193359376,-0.13889537751674652,-0.20647229254245758,-0.16004657745361328
1711545090863905500,21.292905517578124,-0.13156500458717346,-0.21441353857517242,-0.14049890637397766
1711545090882788000,21.3117880859375,-0.13217586278915405,-0.21868959069252014,-0.12522727251052856
1711545090901670700,21.330670654296874,-0.1553887277841568,-0.2919933497905731,-0.14660754799842834
1711545090920553000,21.349552978515625,-0.16149736940860748,-0.38850998878479004,-0.18631376326084137
1711545090939435300,21.368435302734376,-0.1401171088218689,-0.44409868121147156,-0.19792018830776215
1711545090958317800,21.38731787109375,-0.12240202724933624,-0.4557051360607147,-0.19425499439239502
1711545090977200400,21.406200439453126,-0.1352301836013794,-0.49602219462394714,-0.2467893660068512
1711545090996082700,21.425082763671874,-0.18532110750675201,-0.574212908744812,-0.3915643095970154
1711545091014965200,21.44396533203125,-0.28733551502227783,-0.6084213256835938,-0.5161807537078857
1711545091033847600,21.46284765625,-0.4388299882411957,-0.5296197533607483,-0.4972439408302307
1711545091052730000,21.481730224609375,-0.5701659321784973,-0.40866854786872864,-0.3488037884235382
1711545091071612400,21.5006123046875,-0.6214785575866699,-0.3274235129356384,-0.15699224174022675
1711545091090495000,21.519494873046874,-0.5994874238967896,-0.30543237924575806,-0.012217295356094837
1711545091109377300,21.538377197265625,-0.5390118360519409,-0.2718348205089569,0.07330377399921417
1711545091128259800,21.557259765625,-0.49075350165367126,-0.21868959069252014,0.09834922850131989
1711545091147142100,21.57614208984375,-0.49747300148010254,-0.20219624042510986,0.07819069176912308
1711545091166024700,21.595024658203126,-0.5487856268882751,-0.22663083672523499,0.06902772188186646
1711545091184907000,21.613906982421874,-0.6098721027374268,-0.258395791053772,0.09712749719619751
1711545091203789600,21.63278955078125,-0.6379718780517578,-0.27488914132118225,0.14110976457595825
1711545091222672000,21.651671875,-0.6367501616477966,-0.28038692474365234,0.1698204129934311
1711545091241554400,21.670554443359375,-0.6269763112068176,-0.28954991698265076,0.14233149588108063
1711545091260436700,21.689436767578126,-0.6343067288398743,-0.28954991698265076,0.10445787757635117
1711545091279319300,21.7083193359375,-0.6801216006278992,-0.30604326725006104,0.10201441496610641
1711545091298201600,21.72720166015625,-0.7589231133460999,-0.3634645342826843,0.10567960888147354
1711545091317084200,21.746084228515624,-0.8371137976646423,-0.41905322670936584,0.11728604137897491
1711545091335966500,21.764966552734375,-0.8774309158325195,-0.4789179861545563,0.09590577334165573
1711545091354849000,21.78384912109375,-0.8578832149505615,-0.5436696410179138,0.023212861269712448
1711545091373731300,21.8027314453125,-0.8548288941383362,-0.6096430420875549,-0.0665842592716217
1711545091392614000,21.82161376953125,-0.9311869740486145,-0.6780598759651184,-0.11972949653863907
1711545091411496200,21.84049609375,-1.0118211507797241,-0.7281508445739746,-0.06291907280683517
1711545091430378800,21.859378662109375,-1.0613012313842773,-0.749531090259552,0.08857539296150208
1711545091449261000,21.878260986328126,-1.1358267068862915,-0.813671886920929,0.17592905461788177
1711545091468143600,21.8971435546875,-1.243338942527771,-0.9407317638397217,0.10995566099882126
1711545091487026200,21.916026123046876,-1.3575706481933594,-1.0030399560928345,-0.036651886999607086
1711545091505908500,21.934908447265624,-1.408272385597229,-0.9053016304969788,-0.10384701192378998
1711545091524790800,21.953790771484375,-1.3893356323242188,-0.7788525819778442,-0.021380268037319183
1711545091543673300,21.97267333984375,-1.3368011713027954,-0.7898481488227844,0.1081230640411377
1711545091562555600,21.9915556640625,-1.2463932037353516,-0.9615011811256409,0.11667517572641373
1711545091581438200,22.010438232421876,-1.1144464015960693,-1.094058871269226,-0.037262752652168274
1711545091600320500,22.029320556640624,-1.0374774932861328,-1.1123847961425781,-0.23945899307727814
1711545091619203000,22.048203125,-1.0613012313842773,-1.0262528657913208,-0.347582072019577
1711545091638085400,22.06708544921875,-1.1669808626174927,-0.8826996088027954,-0.3170388340950012
1711545091656968000,22.085968017578125,-1.335579514503479,-0.7733548283576965,-0.19364413619041443
1711545091675850200,22.104850341796876,-1.4595850706100464,-0.7257073521614075,-0.10445787757635117
1711545091694732800,22.12373291015625,-1.4369829893112183,-0.6023126840591431,-0.039706211537122726
1711545091713615000,22.142614990234375,-1.3203078508377075,-0.360410213470459,0.10934479534626007
1711545091732497700,22.16149755859375,-1.1688133478164673,-0.16859868168830872,0.3029889166355133
1711545091751380000,22.1803798828125,-1.0411427021026611,-0.1484401375055313,0.43310311436653137
1711545091770262500,22.199262451171876,-1.008766770362854,-0.2559523284435272,0.4166097939014435
1711545091789144800,22.218144775390623,-1.0900118350982666,-0.3995055556297302,0.25473061203956604
1711545091808027400,22.23702734375,-1.2366193532943726,-0.48930269479751587,0.024434590712189674
1711545091826909700,22.25590966796875,-1.3795617818832397,-0.564439058303833,-0.2315177470445633
1711545091845792300,22.274792236328125,-1.4296526908874512,-0.6872228980064392,-0.4831940531730652
1711545091864674600,22.293674560546876,-1.3325251340866089,-0.7544180154800415,-0.6524035930633545
1711545091883557000,22.31255712890625,-1.168202519416809,-0.7525854110717773,-0.7189878225326538
1711545091902439400,22.331439453125,-0.9922734498977661,-0.7092140316963196,-0.6878337264060974
1711545091921322000,22.350322021484374,-0.8365029692649841,-0.7092140316963196,-0.6163625717163086
1711545091940204300,22.369204345703125,-0.7216603755950928,-0.739757239818573,-0.5314523577690125
1711545091959086800,22.3880869140625,-0.6703477501869202,-0.7055488228797913,-0.4098902642726898
1711545091977969200,22.40696923828125,-0.6764563918113708,-0.5790998339653015,-0.23518294095993042
1711545091996851500,22.4258515625,-0.6837867498397827,-0.4153880476951599,-0.036651886999607086
1711545092015734000,22.444734130859374,-0.6960040330886841,-0.32620179653167725,0.14721840620040894
1711545092034616300,22.4636162109375,-0.7063887715339661,-0.32192572951316833,0.29993459582328796
1711545092053499000,22.482498779296876,-0.6923388838768005,-0.379347026348114,0.3744601011276245
1711545092072381200,22.501381103515627,-0.6917279958724976,-0.5051851868629456,0.3390299379825592
1711545092091263700,22.520263671875,-0.722882091999054,-0.6359102129936218,0.18570289015769958
1711545092110146000,22.53914599609375,-0.7357102632522583,-0.7275399565696716,-0.0818558782339096
1711545092129028600,22.558028564453124,-0.6697368621826172,-0.7428115606307983,-0.3445277214050293
1711545092147911000,22.576910888671875,-0.5316814184188843,-0.6976075768470764,-0.4428769648075104
1711545092166793500,22.59579345703125,-0.3716348707675934,-0.647516667842865,-0.30970844626426697
1711545092185675800,22.61467578125,-0.2677878439426422,-0.6133082509040833,-0.043982263654470444
1711545092204558300,22.633558349609373,-0.24946190416812897,-0.7519745230674744,0.043371398001909256
1711545092223440600,22.652440673828124,-0.2372446060180664,-0.8124501705169678,0.014049889519810677
1711545092242323200,22.6713232421875,-0.2781725525856018,-0.6627882719039917,0.04276053607463837
1711545092261205500,22.69020556640625,-0.39484772086143494,-0.47464191913604736,0.14782927930355072
1711545092280087800,22.709087890625,-0.5005273222923279,-0.23762640357017517,0.4062250852584839
1711545092298970400,22.727970458984377,-0.5316814184188843,0.059864748269319534,0.7654135823249817
1711545092317852700,22.746852783203124,-0.4730384051799774,0.24006985127925873,1.0415244102478027
1711545092336735200,22.7657353515625,-0.37774351239204407,0.20647229254245758,1.1087195873260498
1711545092355617500,22.784617431640626,-0.30566146969795227,0.02260199747979641,0.9272927641868591
1711545092374500000,22.8035,-0.2879463732242584,-0.06291907280683517,0.5937605500221252
1711545092393382400,22.82238232421875,-0.2995528280735016,0.06230820715427399,0.20219624042510986
1711545092412265000,22.841264892578124,-0.2537379562854767,0.22174391150474548,-0.2877173125743866
1711545092431147300,22.860147216796875,-0.1602756530046463,0.07330377399921417,-0.8374956250190735
1711545092450029600,22.879029541015626,-0.18409937620162964,-0.3133736252784729,-1.1691951751708984
1711545092468912000,22.897912109375,-0.3136027157306671,-0.6310232877731323,-1.0989457368850708
