time,seconds_elapsed,z,y,x
1711545069743798000,0.172798095703125,0.0322994738817215,-0.025350889191031456,0.013286309316754341
1711545069762680300,0.191680419921875,0.03352120518684387,-0.038789913058280945,0.013286309316754341
1711545069781562600,0.210562744140625,0.013973532244563103,-0.04428769648075104,0.024281874299049377
1711545069800445000,0.22944482421875,-0.015347977168858051,-0.0015271619195118546,0.019394956529140472
1711545069819327500,0.248327392578125,-0.02023489587008953,0.029626941308379173,0.002901607658714056
1711545069838209800,0.267209716796875,-0.014126247726380825,0.024740023538470268,-0.0032070400193333626
1711545069857092000,0.286092041015625,-0.02023489587008953,-0.022296564653515816,0.00045814859913662076
1711545069875974400,0.304974365234375,-0.021456625312566757,-0.026572618633508682,0.009621120058000088
1711545069894856700,0.323856689453125,-0.004963276442140341,-0.0204639695584774,0.002290742937475443
1711545069913739300,0.3427392578125,0.01824958436191082,-0.011300998739898205,-0.009926552884280682
1711545069932621600,0.36162158203125,0.023136503994464874,0.01435532234609127,-0.010537417605519295
1711545069951504000,0.38050390625,0.019471315667033195,-0.011911863461136818,0.006566796451807022
1711545069970386200,0.39938623046875,0.015806125476956367,-0.044898562133312225,0.03955349326133728
1711545069989268500,0.4182685546875,0.01030834298580885,-0.018631376326084137,0.07376192510128021
1711545070008151000,0.437151123046875,-0.005574141163378954,0.011911863461136818,0.07498364895582199
1711545070027033300,0.456033447265625,-0.009850194677710533,-0.000305432389723137,0.04321868345141411
1711545070045915600,0.47491552734375,0.009086613543331623,-0.06200277432799339,0.009010255336761475
1711545070064798000,0.4937978515625,0.019471315667033195,-0.07238747924566269,0.004734201822429895
1711545070083680500,0.512680419921875,0.004199695307761431,0.000305432389723137,0.02672533318400383
1711545070102562800,0.531562744140625,-0.01779143698513508,0.023518294095993042,0.053603384643793106
1711545070121445000,0.550445068359375,-0.03672824427485466,0.032681263983249664,0.0694858655333519
1711545070140327400,0.569327392578125,-0.05627591907978058,0.00946840364485979,0.06276635825634003
1711545070159209700,0.588209716796875,-0.10025817900896072,-0.09132428467273712,0.025503603741526604
1711545070178092300,0.60709228515625,-0.15095995366573334,-0.11575887352228165,-0.023365577682852745
1711545070196974600,0.625974609375,-0.2047160565853119,-0.1701258420944214,-0.06307178735733032
1711545070215857000,0.64485693359375,-0.2395353466272354,-0.1798996776342392,-0.10216713696718216
1711545070234739200,0.6637392578125,-0.2407570779323578,-0.1853974610567093,-0.12354740500450134
1711545070253621800,0.682621826171875,-0.2450331300497055,-0.27091851830482483,-0.11255183815956116
1711545070272504000,0.701504150390625,-0.261526495218277,-0.3961458206176758,-0.11927134543657303
1711545070291386400,0.720386474609375,-0.24747659265995026,-0.24709481000900269,-0.1314886510372162
1711545070310268700,0.7392685546875,-0.20654866099357605,0.06383536756038666,-0.15775582194328308
1711545070329151200,0.758151123046875,-0.15157082676887512,0.2360992431640625,-0.18402300775051117
1711545070348033500,0.777033447265625,-0.09292780607938766,0.2525925934314728,-0.1773035079240799
1711545070366915800,0.795915771484375,-0.06238456442952156,0.29046618938446045,-0.16081015765666962
1711545070385798100,0.814798095703125,-0.012904518283903599,0.2874118685722351,-0.11133010685443878
1711545070404680700,0.8336806640625,-0.0025198173243552446,0.18112140893936157,-0.0386371985077858
1711545070423563000,0.85256298828125,-0.05994110554456711,0.08460476994514465,0.007177661173045635
1711545070442445300,0.8714453125,-0.09414953738451004,0.07605266571044922,0.009621120058000088
1711545070461328000,0.890327880859375,-0.06299543380737305,0.05283980444073677,-0.0025961752980947495
1711545070480210200,0.909210205078125,-0.03061959706246853,0.10598503798246384,-0.02764163166284561
1711545070499092500,0.928092529296875,-0.044669486582279205,0.2880227565765381,-0.08811724185943604
1711545070517974800,0.946974853515625,-0.04528035223484039,0.4511236250400543,-0.19074252247810364
1711545070536857300,0.965857421875,-0.00007635809743078426,0.48960810899734497,-0.25610506534576416
1711545070555739600,0.98473974609375,0.03840812295675278,0.42913252115249634,-0.23655737936496735
1711545070574622000,1.0036220703125,0.057955797761678696,0.3759872615337372,-0.16875138878822327
1711545070593504500,1.02250439453125,0.04512763395905495,0.33017241954803467,-0.08689551800489426
1711545070612386800,1.04138671875,0.03168861195445061,0.32650721073150635,-0.049632761627435684
1711545070631269000,1.06026904296875,0.07628174126148224,0.38698282837867737,-0.07223475724458694
1711545070650151400,1.0791513671875,0.09827287495136261,0.2788597643375397,-0.0850629210472107
1711545070669034000,1.098033935546875,0.06956222653388977,0.2764163017272949,-0.06612611562013626
1711545070687916300,1.116916259765625,0.07139482349157333,0.23793183267116547,-0.04535670951008797
1711545070706798600,1.135798583984375,0.08239039033651352,0.22510367631912231,-0.009315688163042068
1711545070725681200,1.15468115234375,0.08055779337882996,0.1646280586719513,-0.04108065739274025
1711545070744563500,1.1735634765625,0.0322994738817215,0.10354158282279968,-0.08811724185943604
1711545070763445800,1.19244580078125,0.012751801870763302,0.05955931544303894,-0.08872810751199722
1711545070782328300,1.211328369140625,0.021914774551987648,0.03329212963581085,-0.05451968312263489
1711545070801210600,1.230210693359375,0.04024071618914604,0.000305432389723137,-0.020922118797898293
1711545070820093000,1.249093017578125,0.022525638341903687,-0.018631376326084137,-0.03375028073787689
1711545070838975500,1.2679755859375,-0.01107192412018776,-0.006414080038666725,-0.12965604662895203
1711545070857857800,1.28685791015625,0.013973532244563103,0.06261363625526428,-0.19562944769859314
1711545070876740000,1.305739990234375,0.0243582334369421,0.17623448371887207,-0.18646647036075592
1711545070895622700,1.32462255859375,0.042073313146829605,0.25870123505592346,-0.15531237423419952
1711545070914505000,1.3435048828125,0.04696023091673851,0.23854269087314606,-0.1455385386943817
1711545070933387300,1.36238720703125,0.05123628303408623,0.30146175622940063,-0.14859285950660706
1711545070952269800,1.381269775390625,0.08666644245386124,0.3900371491909027,-0.12965604662895203
1711545070971152100,1.400152099609375,0.09521854668855667,0.4248564541339874,-0.1406516134738922
1711545070990034400,1.419034423828125,0.09094249457120895,0.3900371491909027,-0.12782345712184906
1711545071008917000,1.4379169921875,0.03962985426187515,0.19944734871387482,-0.10827577859163284
1711545071027799300,1.45679931640625,0.045738499611616135,0.08582650125026703,-0.08567378669977188
1711545071046681600,1.475681640625,0.03535379841923714,-0.011300998739898205,-0.10155627131462097
1711545071065564200,1.494564208984375,0.011530072428286076,-0.01802051067352295,-0.10949750989675522
1711545071084446500,1.513446533203125,0.005421424750238657,-0.03329212963581085,-0.08811724185943604
1711545071103328800,1.532328857421875,0.00603228947147727,-0.04917461425065994,-0.04108065739274025
1711545071122211300,1.55121142578125,0.004199695307761431,-0.04428769648075104,0.01206457894295454
1711545071141093600,1.57009375,-0.018402300775051117,-0.054672397673130035,0.08720094710588455
1711545071159976000,1.588975830078125,-0.028787001967430115,-0.14080433547496796,0.1513417512178421
1711545071178858500,1.6078583984375,-0.0025198173243552446,-0.1805105358362198,0.18127411603927612
1711545071197740800,1.62674072265625,0.012140937149524689,-0.10842850059270859,0.09147699922323227
1711545071216623000,1.645623046875,0.023136503994464874,-0.06444623321294785,-0.0013744457392022014
1711545071235505700,1.664505615234375,0.04696023091673851,-0.10476330667734146,-0.023365577682852745
1711545071254388000,1.683387939453125,0.05429060757160187,-0.15057817101478577,0.021227551624178886
1711545071273270300,1.702270263671875,0.054901473224163055,-0.2464839369058609,0.08597921580076218
1711545071292152800,1.72115283203125,-0.012904518283903599,-0.3992001414299011,0.1415679156780243
1711545071311035100,1.74003515625,-0.09842558950185776,-0.5561923980712891,0.18982623517513275
1711545071329917700,1.758917724609375,-0.08926261961460114,-0.7192932963371277,0.18005239963531494
1711545071348800000,1.777800048828125,-0.038560837507247925,-0.9440914988517761,0.14340050518512726
1711545071367682300,1.796682373046875,0.015806125476956367,-1.3295471668243408,0.08781181275844574
1711545071386564900,1.81556494140625,0.1398116797208786,-1.4175117015838623,0.14278964698314667
1711545071405447200,1.834447265625,0.2796997129917145,-1.0228930711746216,0.268627792596817
1711545071424329700,1.853329833984375,0.2998582422733307,-0.5855138897895813,0.3926333487033844
1711545071443212000,1.8722119140625,0.212504580616951,-0.36193737387657166,0.4653262495994568
1711545071462094300,1.89109423828125,0.11049016565084457,-0.3295615613460541,0.4555523991584778
1711545071480977000,1.909976806640625,0.01763872057199478,-0.3130682110786438,0.31383177638053894
1711545071499859200,1.928859130859375,-0.009850194677710533,-0.2666424810886383,0.17455461621284485
1711545071518741800,1.94774169921875,0.019471315667033195,-0.29046618938446045,0.11285726726055145
1711545071537624000,1.9666240234375,0.10560324788093567,-0.3075704276561737,0.12690715491771698
1711545071556506400,1.98550634765625,0.191735178232193,-0.3032943606376648,0.17516547441482544
1711545071575389000,2.004388916015625,0.2369391769170761,-0.2360992431640625,0.2185368686914444
1711545071594271200,2.023271240234375,0.21922409534454346,-0.24892739951610565,0.23441936075687408
1711545071613153800,2.04215380859375,0.17157664895057678,-0.2721402645111084,0.2606865465641022
1711545071632036000,2.0610361328125,0.09521854668855667,-0.17318016290664673,0.32421648502349854
1711545071650918400,2.07991845703125,-0.02084576152265072,-0.010079269297420979,0.41034841537475586
1711545071669801000,2.098801025390625,-0.12041672319173813,0.03329212963581085,0.4812087416648865
1711545071688683300,2.117683349609375,-0.1326340138912201,0.03023780696094036,0.46715885400772095
1711545071707565800,2.13656591796875,-0.060551971197128296,0.07055488228797913,0.3480401933193207
1711545071726448000,2.1554482421875,0.023747367784380913,0.016187917441129684,0.15561780333518982
1711545071745330400,2.174330322265625,0.08422297984361649,-0.05345066636800766,-0.022754713892936707
1711545071764213000,2.193212890625,0.12331832945346832,-0.06017018109560013,-0.1107192412018776
1711545071783095300,2.21209521484375,0.10987929999828339,-0.09865466505289078,-0.09300415962934494
1711545071801977900,2.230977783203125,0.054901473224163055,-0.06811141967773438,0.03649916872382164
1711545071820860200,2.249860107421875,-0.026343543082475662,0.03023780696094036,0.19471314549446106
1711545071839742700,2.26874267578125,-0.08804088830947876,0.06383536756038666,0.258853942155838
1711545071858625000,2.287625,-0.08315397053956985,0.05528326332569122,0.2240346521139145
1711545071877507300,2.30650732421875,-0.03611737862229347,0.05406153202056885,0.14828743040561676
1711545071896390000,2.325389892578125,-0.008628465235233307,0.06261363625526428,0.07803797721862793
1711545071915272200,2.344272216796875,-0.0019089524867013097,0.044898562133312225,0.031612250953912735
1711545071934154800,2.36315478515625,-0.0006872228696011007,0.09132428467273712,0.018784092739224434
1711545071953037000,2.382037109375,-0.0025198173243552446,0.13652828335762024,0.01206457894295454
1711545071971919600,2.400919677734375,0.007864884100854397,0.1487455666065216,-0.0019853105768561363
1711545071990802000,2.419802001953125,0.022525638341903687,0.15179990231990814,-0.028863361105322838
1711545072009684500,2.4386845703125,0.023747367784380913,0.09926552325487137,-0.05757400393486023
1711545072028566800,2.45756689453125,0.018860450014472008,0.09315688163042068,-0.0642935186624527
1711545072047449000,2.476448974609375,0.013973532244563103,0.11636973917484283,-0.030695954337716103
1711545072066331600,2.49533154296875,0.0035888305865228176,0.19822561740875244,0.011453714221715927
1711545072085214000,2.5142138671875,-0.010461059398949146,0.33750277757644653,0.015729768201708794
1711545072104096500,2.533096435546875,-0.008017600513994694,0.40775224566459656,-0.05513054504990578
1711545072122978800,2.551978759765625,0.03352120518684387,0.4529562294483185,-0.1204930767416954
1711545072141861400,2.570861328125,0.04634936526417732,0.42852163314819336,-0.141262486577034
1711545072160743700,2.58974365234375,-0.008017600513994694,0.4786125421524048,-0.06612611562013626
1711545072179626200,2.608626220703125,-0.11430807411670685,-0.014966187067329884,-0.12171480804681778
1711545072198508500,2.627508544921875,-0.13141228258609772,-0.1957821547985077,-0.21700970828533173
1711545072217391000,2.64639111328125,-0.16378812491893768,0.05406153202056885,-0.26221370697021484
1711545072236273400,2.6652734375,-0.18150319159030914,0.21410810947418213,-0.2842048406600952
1711545072255156000,2.684156005859375,-0.0703258067369461,-0.18417572975158691,-0.28298309445381165
1711545072274038300,2.703038330078125,0.08727730810642242,-0.29046618938446045,-0.17363831400871277
1711545072292920800,2.7219208984375,0.09277509152889252,-0.08460476994514465,-0.07834340631961823
1711545072311803100,2.74080322265625,0.014584396965801716,0.16523891687393188,-0.06001746281981468
1711545072330685400,2.759685546875,-0.013515383005142212,0.1585194170475006,-0.08017600327730179
1711545072349568000,2.778568115234375,0.00847574882209301,0.060781046748161316,-0.04474584385752678
1711545072368450600,2.797450439453125,-0.0006872228696011007,-0.018631376326084137,0.05787943676114082
1711545072387332900,2.816332763671875,-0.04283689334988594,-0.016798781231045723,0.12324196845293045
1711545072406215200,2.835215087890625,-0.024510949850082397,0.08460476994514465,0.12812888622283936
1711545072425097700,2.85409765625,0.0011453714687377214,0.07544180005788803,0.07742711156606674
1711545072443980000,2.87297998046875,-0.0019089524867013097,0.0412333719432354,-0.0038179049734026194
1711545072462862600,2.891862548828125,0.0005345066892914474,0.1487455666065216,-0.03130681812763214
1711545072481745200,2.9107451171875,-0.004352411720901728,0.21349723637104034,0.0102319847792387
1711545072500627500,2.92962744140625,-0.02756527252495289,0.14752385020256042,0.08903354406356812
1711545072519509800,2.948509765625,-0.04711294546723366,0.06627883017063141,0.14706569910049438
1711545072538392300,2.967392333984375,-0.05322159454226494,0.019853105768561363,0.15806126594543457
1711545072557274600,2.986274658203125,-0.04589121788740158,0.005803215317428112,0.11835505068302155
1711545072576157200,3.0051572265625,-0.03428478538990021,0.0009162971982732415,0.03588830679655075
1711545072595039500,3.02403955078125,-0.0031306820455938578,0.032070402055978775,-0.061850059777498245
1711545072613922000,3.042922119140625,0.023136503994464874,0.02107483521103859,-0.12476912885904312
1711545072632804400,3.061804443359375,0.011530072428286076,-0.03940077871084213,-0.1253799945116043
1711545072651687000,3.08068701171875,-0.008628465235233307,0.0015271619195118546,-0.03558287397027016
1711545072670569500,3.099569580078125,-0.0397825688123703,0.008857538923621178,0.04505127668380737
1711545072689451800,3.11845166015625,-0.03550651669502258,0.02779434807598591,0.08781181275844574
1711545072708334000,3.137333984375,-0.028787001967430115,0.03756818547844887,0.06887500733137131
1711545072727216600,3.156216552734375,-0.012904518283903599,0.06566796451807022,0.007177661173045635
1711545072746099200,3.17509912109375,-0.007406735327094793,0.12125665694475174,-0.04535670951008797
1711545072764981500,3.1939814453125,-0.015347977168858051,0.12125665694475174,-0.06001746281981468
1711545072783864000,3.212864013671875,-0.025121813639998436,0.0772743970155716,-0.030085090547800064
1711545072802746400,3.231746337890625,-0.022067490965127945,0.021685699000954628,0.025503603741526604
1711545072821629000,3.25062890625,-0.021456625312566757,0.03329212963581085,0.06154462695121765
1711545072840511200,3.26951123046875,-0.022067490965127945,0.13164135813713074,0.04932733252644539
1711545072859393800,3.288393798828125,0.0017562361899763346,0.1957821547985077,0.00045814859913662076
1711545072878276000,3.307276123046875,0.02130390889942646,0.18417572975158691,-0.05451968312263489
1711545072897158700,3.32615869140625,0.03107774630188942,0.1383608728647232,-0.07345648854970932
1711545072916041000,3.345041015625,0.035964664071798325,0.15241076052188873,-0.05940660089254379
1711545072934923500,3.363923583984375,0.03657552972435951,0.18723005056381226,-0.04474584385752678
1711545072953806000,3.38280615234375,0.03779725730419159,0.14569124579429626,-0.049632761627435684
1711545072972688400,3.4016884765625,0.039018988609313965,0.13041962683200836,-0.05024362727999687
1711545072991570700,3.42057080078125,0.023136503994464874,0.11209368705749512,-0.025809036567807198
1711545073010453200,3.439453369140625,-0.005574141163378954,0.0717766135931015,0.01206457894295454
1711545073029335800,3.458335693359375,-0.014126247726380825,0.08338304609060287,0.041386090219020844
1711545073048218000,3.477218017578125,-0.004963276442140341,0.08949168771505356,0.044440411031246185
1711545073067100700,3.4961005859375,0.015806125476956367,0.10476330667734146,0.050549060106277466
1711545073085983000,3.51498291015625,0.015195261687040329,0.10842850059270859,0.06154462695121765
1711545073104865500,3.533865478515625,0.0035888305865228176,0.06322450190782547,0.028557928279042244
1711545073123747800,3.552747802734375,0.005421424750238657,0.05100720748305321,-0.033139415085315704
1711545073142630400,3.57163037109375,0.004810560029000044,0.03329212963581085,-0.0850629210472107
1711545073161513000,3.590512939453125,0.0035888305865228176,0.007635809946805239,-0.11133010685443878
1711545073180395300,3.609395263671875,-0.00679587060585618,-0.004581485874950886,-0.10155627131462097
1711545073199277800,3.62827783203125,0.0005345066892914474,-0.025961752980947495,-0.05757400393486023
1711545073218160000,3.64716015625,0.028634287416934967,-0.00946840364485979,-0.011759147047996521
1711545073237042700,3.666042724609375,0.029245151206851006,-0.051618073135614395,0.010842849500477314
1711545073255925200,3.68492529296875,0.007864884100854397,-0.019853105768561363,0.012675444595515728
1711545073274807600,3.7038076171875,0.0029779658652842045,0.016798781231045723,0.017562363296747208
1711545073293690000,3.722690185546875,0.005421424750238657,-0.00946840364485979,0.003512472379952669
1711545073312572400,3.741572509765625,0.004810560029000044,0.000305432389723137,-0.016035201027989388
1711545073331455000,3.760455078125,-0.019624030217528343,0.07116574794054031,-0.05513054504990578
1711545073350337300,3.779337158203125,-0.029397867619991302,0.18723005056381226,-0.06734783947467804
1711545073369219800,3.7982197265625,-0.012904518283903599,0.2257145345211029,0.0334448479115963
1711545073388102100,3.81710205078125,-0.0807105079293251,-0.010690134018659592,0.29794928431510925
1711545073406984700,3.835984619140625,-0.050778135657310486,-0.28557929396629333,0.2741255760192871
1711545073425867300,3.8548671875,-0.010461059398949146,-0.08643736690282822,0.021227551624178886
1711545073444749600,3.87374951171875,-0.02390008419752121,0.10048725455999374,-0.3013090491294861
1711545073463632100,3.892632080078125,0.012751801870763302,-0.025961752980947495,-0.3837758004665375
1711545073482514700,3.9115146484375,0.05367974191904068,-0.4841103255748749,-0.27809619903564453
1711545073501397000,3.93039697265625,0.10621411353349686,-0.629496157169342,-0.07528908550739288
1711545073520279600,3.949279541015625,0.09949459880590439,-0.4926624298095703,0.08781181275844574
1711545073539161900,3.968161865234375,0.02130390889942646,-0.25503605604171753,0.13912445306777954
1711545073558044400,3.98704443359375,-0.06482802331447601,-0.0461202897131443,0.08842267841100693
1711545073576927000,4.005927001953125,-0.10575596243143082,-0.011300998739898205,0.011453714221715927
1711545073595809300,4.024809326171875,-0.0910952091217041,-0.09682206809520721,-0.0038179049734026194
1711545073614691800,4.04369189453125,-0.06788235157728195,-0.18600831925868988,0.02611446939408779
1711545073633574100,4.06257421875,-0.05627591907978058,-0.21655155718326569,0.08536835014820099
1711545073652456700,4.081456787109375,-0.07948877662420273,-0.19272783398628235,0.13240493834018707
1711545073671339300,4.10033935546875,-0.09537126123905182,-0.09193515032529831,0.13851359486579895
1711545073690221600,4.1192216796875,-0.06421715766191483,-0.010079269297420979,0.09819651395082474
1711545073709104000,4.138104248046875,-0.010461059398949146,0.019853105768561363,0.051159925758838654
1711545073727986700,4.156986572265625,0.020693045109510422,-0.038789913058280945,0.02611446939408779
1711545073746869000,4.175868896484375,0.03107774630188942,-0.10231985151767731,0.024281874299049377
1711545073765751600,4.19475146484375,0.030466880649328232,-0.08949168771505356,0.018173227086663246
1711545073784634000,4.213634033203125,0.028634287416934967,-0.10415244847536087,0.004123337101191282
1711545073803516400,4.232516357421875,0.0475710928440094,-0.06933315098285675,0.013286309316754341
1711545073822399000,4.25139892578125,0.039018988609313965,-0.05039634555578232,0.030390523374080658
1711545073841281300,4.27028125,0.018860450014472008,-0.004581485874950886,0.047494735568761826
1711545073860163800,4.289163818359375,0.0066431546583771706,-0.022296564653515816,0.04199695214629173
1711545073879046400,4.30804638671875,0.009086613543331623,-0.04367683082818985,0.024281874299049377
1711545073897928700,4.3269287109375,0.009697478264570236,-0.032070402055978775,0.007177661173045635
1711545073916811300,4.345811279296875,-0.0006872228696011007,-0.016798781231045723,-0.0013744457392022014
1711545073935693800,4.36469384765625,-0.00679587060585618,-0.00946840364485979,-0.008704823441803455
1711545073954576100,4.383576171875,-0.004963276442140341,0.005192350596189499,-0.02214384824037552
1711545073973458700,4.402458740234375,-0.0012980876490473747,-0.003359756199643016,-0.014813470654189587
1711545073992341200,4.42134130859375,-0.008628465235233307,-0.018631376326084137,0.01695149764418602
1711545074011223600,4.4402236328125,-0.010461059398949146,-0.029626941308379173,0.0487164668738842
1711545074030106000,4.459106201171875,0.009086613543331623,-0.044898562133312225,0.05482511222362518
1711545074048988700,4.47798876953125,0.030466880649328232,-0.029016077518463135,0.044440411031246185
1711545074067871000,4.49687109375,0.03352120518684387,-0.0412333719432354,0.018173227086663246
1711545074086753500,4.51575341796875,0.03535379841923714,-0.03451386094093323,-0.011759147047996521
1711545074105636000,4.534635986328125,0.05001455545425415,-0.022907428443431854,-0.039248060435056686
1711545074124518400,4.553518310546875,0.06528617441654205,-0.018631376326084137,-0.03802633285522461
1711545074143401000,4.57240087890625,0.054901473224163055,-0.003970621153712273,0.007788525894284248
1711545074162283500,4.591283447265625,0.02130390889942646,-0.025350889191031456,0.08414662629365921
1711545074181165800,4.610165771484375,-0.019624030217528343,-0.0461202897131443,0.13179408013820648
1711545074200048400,4.62904833984375,-0.03367391973733902,-0.03940077871084213,0.10919208079576492
1711545074218931000,4.647930908203125,-0.014126247726380825,-0.007635809946805239,0.05543597787618637
1711545074237813200,4.666813232421875,0.0017562361899763346,0.0027488914784044027,-0.0013744457392022014
1711545074256695800,4.68569580078125,0.009086613543331623,-0.0021380267571657896,-0.03497200831770897
1711545074275578400,4.704578369140625,0.009086613543331623,-0.010690134018659592,-0.026419902220368385
1711545074294460700,4.723460693359375,-0.0006872228696011007,-0.010079269297420979,-0.0038179049734026194
1711545074313343200,4.74234326171875,-0.00679587060585618,-0.0009162971982732415,0.009621120058000088
1711545074332225800,4.761225830078125,-0.004352411720901728,-0.0021380267571657896,0.007177661173045635
1711545074351108400,4.7801083984375,0.00847574882209301,-0.013133592903614044,0.004123337101191282
1711545074369990700,4.79899072265625,0.01763872057199478,-0.04367683082818985,0.02672533318400383
1711545074388873200,4.817873291015625,0.01824958436191082,-0.04978547990322113,0.05604684352874756
1711545074407755800,4.836755859375,0.015806125476956367,-0.014966187067329884,0.06765327602624893
1711545074426638000,4.85563818359375,0.018860450014472008,0.03023780696094036,0.057268574833869934
1711545074445520600,4.874520751953125,0.023747367784380913,0.04306596517562866,0.04566214233636856
1711545074464403200,4.8934033203125,0.026801692321896553,0.014966187067329884,0.054214250296354294
1711545074483285800,4.91228564453125,0.018860450014472008,-0.006414080038666725,0.07070759683847427
1711545074502168000,4.93116796875,0.005421424750238657,0.005192350596189499,0.06337722390890121
1711545074521050600,4.950050537109375,-0.005574141163378954,-0.013744457624852657,0.007177661173045635
1711545074539933200,4.96893310546875,-0.009850194677710533,-0.010690134018659592,-0.049021899700164795
1711545074558815500,4.9878154296875,-0.015958841890096664,-0.014966187067329884,-0.06734783947467804
1711545074577698000,5.006697998046875,-0.01107192412018776,-0.0204639695584774,-0.0435241162776947
1711545074596580600,5.02558056640625,-0.004963276442140341,-0.013133592903614044,-0.0032070400193333626
1711545074615463200,5.044463134765625,-0.008628465235233307,-0.016187917441129684,0.019394956529140472
1711545074634345500,5.063345458984375,-0.011682788841426373,-0.003970621153712273,0.021227551624178886
1711545074653228000,5.08222802734375,-0.008017600513994694,-0.008246674202382565,0.009010255336761475
1711545074672110600,5.101110595703125,0.005421424750238657,-0.008857538923621178,-0.0038179049734026194
1711545074690993200,5.1199931640625,0.013973532244563103,0.028405211865901947,0.00045814859913662076
1711545074709875500,5.13887548828125,0.020082179456949234,0.04306596517562866,0.017562363296747208
1711545074728758000,5.157758056640625,0.022525638341903687,0.014966187067329884,0.0383317656815052
1711545074747640600,5.176640625,0.012751801870763302,-0.0308486707508564,0.030390523374080658
1711545074766523000,5.19552294921875,0.010919207707047462,-0.03817904740571976,-0.0025961752980947495
1711545074785405400,5.214405517578125,0.01030834298580885,0.0021380267571657896,-0.03375028073787689
1711545074804288000,5.2332880859375,0.010919207707047462,0.02779434807598591,-0.027030766010284424
1711545074823170600,5.252170654296875,-0.0025198173243552446,0.012522728182375431,0.006566796451807022
1711545074842053000,5.27105322265625,-0.014126247726380825,-0.014966187067329884,0.030390523374080658
1711545074860935400,5.289935302734375,-0.008017600513994694,-0.011300998739898205,0.024892739951610565
1711545074879818000,5.30881787109375,0.00847574882209301,0.008246674202382565,0.006566796451807022
1711545074898700500,5.327700439453125,0.02130390889942646,-0.003359756199643016,-0.0025961752980947495
1711545074917583000,5.3465830078125,0.021914774551987648,0.008246674202382565,0.001679878099821508
1711545074936465400,5.36546533203125,0.005421424750238657,0.012522728182375431,0.01511890348047018
1711545074955348000,5.384347900390625,0.0017562361899763346,-0.000305432389723137,0.04810560122132301
1711545074974230500,5.40323046875,-0.0006872228696011007,-0.024740023538470268,0.05604684352874756
1711545074993113000,5.422113037109375,0.0011453714687377214,-0.014966187067329884,0.03222311660647392
1711545075011995400,5.440995361328125,0.013362666592001915,0.014966187067329884,-0.0032070400193333626
1711545075030878000,5.4598779296875,0.018860450014472008,0.022296564653515816,-0.026419902220368385
1711545075049760500,5.478760498046875,0.009086613543331623,0.005192350596189499,-0.03252854943275452
1711545075068643000,5.49764306640625,0.005421424750238657,-0.0015271619195118546,-0.012980876490473747
1711545075087525600,5.516525634765625,0.004199695307761431,-0.023518294095993042,0.01695149764418602
1711545075106408000,5.535407958984375,0.00603228947147727,-0.015577051788568497,0.031001387163996696
1711545075125290500,5.55429052734375,0.0066431546583771706,0.003359756199643016,0.01695149764418602
1711545075144173000,5.573173095703125,0.004810560029000044,-0.0021380267571657896,-0.004428769461810589
1711545075163055600,5.5920556640625,0.005421424750238657,-0.0015271619195118546,0.005955931730568409
1711545075181938200,5.610938232421875,0.004199695307761431,-0.0009162971982732415,0.027947064489126205
1711545075200820500,5.629820556640625,0.009697478264570236,0.000305432389723137,0.05177079141139984
1711545075219703000,5.648703125,0.004810560029000044,-0.014966187067329884,0.07131846249103546
1711545075238585600,5.667585693359375,-0.004352411720901728,-0.00946840364485979,0.0743727833032608
1711545075257468200,5.68646826171875,-0.008017600513994694,0.011300998739898205,0.046883873641490936
1711545075276350700,5.705350830078125,0.009697478264570236,0.021685699000954628,0.01206457894295454
1711545075295233300,5.7242333984375,0.029245151206851006,0.008857538923621178,-0.0038179049734026194
1711545075314115600,5.743115478515625,0.0243582334369421,-0.005803215317428112,-0.0038179049734026194
1711545075332998100,5.761998046875,0.005421424750238657,0.011911863461136818,0.007177661173045635
1711545075351880700,5.780880615234375,-0.004352411720901728,0.02107483521103859,0.01695149764418602
1711545075370763300,5.79976318359375,0.0017562361899763346,0.010079269297420979,0.021227551624178886
1711545075389645800,5.818645751953125,0.007254019379615784,-0.029626941308379173,0.009010255336761475
1711545075408528400,5.8375283203125,0.018860450014472008,0.016187917441129684,0.0010690133785828948
1711545075427410700,5.85641064453125,0.011530072428286076,0.0308486707508564,0.009010255336761475
1711545075446293200,5.875293212890625,0.0023671009112149477,0.003359756199643016,0.031612250953912735
1711545075465175800,5.89417578125,-0.008017600513994694,-0.016798781231045723,0.041386090219020844
1711545075484058400,5.913058349609375,-0.01718057133257389,0.000305432389723137,0.01511890348047018
1711545075502941000,5.93194091796875,-0.008017600513994694,0.0027488914784044027,-0.02214384824037552
1711545075521823500,5.950823486328125,0.0035888305865228176,-0.008246674202382565,-0.03436114266514778
1711545075540705800,5.969705810546875,-0.0025198173243552446,-0.016798781231045723,-0.0435241162776947
1711545075559588400,5.98858837890625,0.0035888305865228176,-0.008246674202382565,-0.05146535858511925
1711545075578471000,6.007470947265625,0.007864884100854397,0.005803215317428112,-0.030085090547800064
1711545075597353500,6.026353515625,0.0005345066892914474,0.007024944759905338,0.017562363296747208
1711545075616236000,6.045236083984375,-0.00923932995647192,-0.022296564653515816,0.04627300798892975
1711545075635118600,6.06411865234375,-0.0031306820455938578,-0.024740023538470268,0.041386090219020844
1711545075654001000,6.0830009765625,0.012140937149524689,-0.0015271619195118546,0.01206457894295454
1711545075672883500,6.101883544921875,0.029856016859412193,0.022907428443431854,-0.007483093533664942
1711545075691766000,6.12076611328125,0.029856016859412193,0.008246674202382565,0.00045814859913662076
1711545075710648600,6.139648681640625,0.007864884100854397,0.0021380267571657896,0.016340631991624832
1711545075729531100,6.15853125,-0.013515383005142212,-0.0027488914784044027,0.021838415414094925
1711545075748413700,6.17741357421875,-0.014126247726380825,-0.010079269297420979,0.007177661173045635
1711545075767296300,6.196296142578125,0.007864884100854397,-0.015577051788568497,-0.014202605932950974
1711545075786178800,6.2151787109375,0.019471315667033195,-0.005192350596189499,-0.02214384824037552
1711545075805061000,6.23406103515625,0.00847574882209301,0.013744457624852657,-0.014813470654189587
1711545075823943700,6.252943603515625,-0.00923932995647192,0.007024944759905338,-0.0154243353754282
1711545075842826200,6.271826171875,-0.009850194677710533,-0.006414080038666725,-0.012980876490473747
1711545075861708800,6.290708740234375,0.005421424750238657,-0.023518294095993042,0.005955931730568409
1711545075880591400,6.30959130859375,0.00847574882209301,-0.005803215317428112,0.03283398225903511
1711545075899474000,6.328473876953125,-0.004352411720901728,0.005192350596189499,0.030390523374080658
1711545075918356500,6.3473564453125,-0.00679587060585618,-0.0015271619195118546,0.008399390615522861
1711545075937239000,6.366239013671875,0.0017562361899763346,-0.01740964688360691,-0.016035201027989388
1711545075956121600,6.38512158203125,0.014584396965801716,-0.011300998739898205,-0.0154243353754282
1711545075975004200,6.404004150390625,0.023136503994464874,0.008857538923621178,0.019394956529140472
1711545075993886700,6.42288671875,0.009697478264570236,0.004581485874950886,0.04505127668380737
1711545076012769000,6.44176904296875,0.0005345066892914474,-0.010079269297420979,0.03527744114398956
1711545076031651600,6.460651611328125,0.012751801870763302,-0.014966187067329884,-0.0062613640911877155
1711545076050534100,6.4795341796875,0.026801692321896553,-0.015577051788568497,-0.04413498193025589
1711545076069416700,6.498416748046875,0.0322994738817215,0.0009162971982732415,-0.042913250625133514
1711545076088299300,6.51729931640625,0.015195261687040329,0.0021380267571657896,-0.0007635809597559273
1711545076107181800,6.536181884765625,-0.007406735327094793,-0.013133592903614044,0.04932733252644539
1711545076126064400,6.555064453125,-0.018402300775051117,-0.0021380267571657896,0.07070759683847427
1711545076144947000,6.573947021484375,-0.010461059398949146,0.0027488914784044027,0.05238165333867073
1711545076163829500,6.59282958984375,0.005421424750238657,-0.005803215317428112,0.022449281066656113
1711545076182712000,6.611712158203125,0.015195261687040329,-0.008246674202382565,0.004734201822429895
1711545076201594600,6.6305947265625,0.009086613543331623,-0.010690134018659592,0.0010690133785828948
1711545076220477200,6.649477294921875,-0.005574141163378954,-0.004581485874950886,0.002290742937475443
1711545076239359500,6.668359375,-0.0031306820455938578,-0.007024944759905338,0.007177661173045635
1711545076258242000,6.687241943359375,0.0023671009112149477,-0.013133592903614044,0.012675444595515728
1711545076277124600,6.70612451171875,0.01030834298580885,-0.008857538923621178,0.007177661173045635
1711545076296007200,6.725007080078125,0.02130390889942646,0.010079269297420979,0.012675444595515728
1711545076314889700,6.7438896484375,0.016416991129517555,0.010079269297420979,0.027336198836565018
1711545076333772300,6.762772216796875,0.005421424750238657,-0.008246674202382565,0.037720900028944016
1711545076352654800,6.78165478515625,-0.0019089524867013097,-0.007635809946805239,0.031612250953912735
1711545076371537400,6.800537353515625,-0.005574141163378954,0.011300998739898205,0.008399390615522861
1711545076390420000,6.819419921875,0.007864884100854397,0.008857538923621178,-0.009926552884280682
1711545076409302500,6.838302490234375,0.013973532244563103,0.013744457624852657,-0.012370011769235134
1711545076428185000,6.85718505859375,0.0011453714687377214,0.00946840364485979,-0.0062613640911877155
1711545076447067600,6.876067626953125,-0.00923932995647192,-0.024740023538470268,0.013286309316754341
1711545076465950200,6.8949501953125,-0.012293653562664986,-0.035124726593494415,0.025503603741526604
1711545076484832800,6.913832763671875,-0.009850194677710533,0.000305432389723137,0.027336198836565018
1711545076503715300,6.93271533203125,-0.0031306820455938578,0.03329212963581085,0.02367101050913334
1711545076522598000,6.951597900390625,0.0023671009112149477,0.005192350596189499,0.02367101050913334
1711545076541480400,6.97048046875,0.004199695307761431,-0.01802051067352295,0.027336198836565018
1711545076560363000,6.989363037109375,0.0029779658652842045,-0.022296564653515816,0.014508038759231567
1711545076579245600,7.00824560546875,0.01030834298580885,0.01435532234609127,-0.005650499369949102
1711545076598128000,7.027128173828125,0.014584396965801716,0.03145953640341759,-0.016646064817905426
1711545076617010700,7.0460107421875,0.009697478264570236,0.013744457624852657,-0.007483093533664942
1711545076635893200,7.064893310546875,-0.008017600513994694,-0.003970621153712273,0.008399390615522861
1711545076654775800,7.08377587890625,-0.014737112447619438,-0.035735588520765305,0.002901607658714056
1711545076673658400,7.102658447265625,0.0023671009112149477,-0.014966187067329884,-0.0062613640911877155
1711545076692541000,7.121541015625,0.007254019379615784,0.007024944759905338,-0.009315688163042068
1711545076711423500,7.140423583984375,0.0005345066892914474,0.026572618633508682,0.010842849500477314
1711545076730306000,7.15930615234375,-0.016569707542657852,0.016798781231045723,0.03894263133406639
1711545076749188600,7.178188720703125,-0.021456625312566757,-0.014966187067329884,0.05604684352874756
1711545076768071200,7.1970712890625,-0.010461059398949146,-0.0015271619195118546,0.0591011680662632
1711545076786953700,7.21595361328125,0.005421424750238657,0.011300998739898205,0.040775224566459656
1711545076805836300,7.234836181640625,0.019471315667033195,-0.004581485874950886,-0.0062613640911877155
1711545076824718800,7.25371875,0.0322994738817215,-0.0027488914784044027,-0.04108065739274025
1711545076843601400,7.272601318359375,0.026190826669335365,0.011911863461136818,-0.03252854943275452
1711545076862484000,7.29148388671875,0.0017562361899763346,0.003359756199643016,-0.005039634648710489
1711545076881366500,7.310366455078125,-0.010461059398949146,-0.007024944759905338,0.024281874299049377
1711545076900249000,7.3292490234375,-0.015958841890096664,-0.015577051788568497,0.024892739951610565
1711545076919131600,7.348131591796875,-0.013515383005142212,-0.011300998739898205,-0.0019853105768561363
1711545076938014200,7.36701416015625,-0.008017600513994694,-0.0015271619195118546,-0.020311253145337105
1711545076956896800,7.385896728515625,-0.00923932995647192,0.003970621153712273,-0.019700389355421066
1711545076975779300,7.404779296875,-0.0006872228696011007,-0.01435532234609127,0.0010690133785828948
1711545076994662000,7.423661865234375,0.007864884100854397,-0.019853105768561363,0.02367101050913334
1711545077013544400,7.44254443359375,0.00603228947147727,0.014966187067329884,0.03527744114398956
1711545077032427000,7.461427001953125,0.0017562361899763346,0.02107483521103859,0.027336198836565018
1711545077051309600,7.4803095703125,0.0011453714687377214,-0.0015271619195118546,0.012675444595515728
1711545077070192000,7.499192138671875,0.005421424750238657,-0.008857538923621178,-0.0038179049734026194
1711545077089075000,7.518074951171875,0.014584396965801716,0.007024944759905338,-0.005650499369949102
1711545077107957200,7.536957275390625,0.007864884100854397,-0.00946840364485979,-0.0025961752980947495
1711545077126840000,7.555840087890625,-0.00923932995647192,-0.023518294095993042,0.001679878099821508
1711545077145722600,7.57472265625,-0.022067490965127945,-0.01740964688360691,0.001679878099821508
1711545077164605200,7.593605224609375,-0.019624030217528343,0.0015271619195118546,0.005955931730568409
1711545077183487700,7.61248779296875,-0.0031306820455938578,-0.010079269297420979,0.0102319847792387
1711545077202370300,7.631370361328125,0.009086613543331623,-0.019853105768561363,0.005345067009329796
1711545077221252900,7.6502529296875,0.0066431546583771706,0.0021380267571657896,-0.004428769461810589
1711545077240135400,7.669135498046875,0.0011453714687377214,0.025961752980947495,0.002901607658714056
1711545077259018000,7.68801806640625,-0.0006872228696011007,0.010690134018659592,0.025503603741526604
1711545077277900500,7.706900634765625,0.0005345066892914474,-0.007635809946805239,0.037720900028944016
1711545077296783000,7.725783203125,0.012140937149524689,-0.023518294095993042,0.025503603741526604
1711545077315665700,7.744665771484375,0.029856016859412193,-0.02107483521103859,-0.0001527161948615685
1711545077334548200,7.76354833984375,0.04085158184170723,0.008857538923621178,0.007788525894284248
1711545077353431000,7.78243115234375,0.029245151206851006,-0.004581485874950886,0.040775224566459656
1711545077372313600,7.801313720703125,0.014584396965801716,-0.005192350596189499,0.05787943676114082
1711545077391196200,7.820196044921875,-0.00923932995647192,-0.006414080038666725,0.022449281066656113
1711545077410078700,7.83907861328125,-0.014126247726380825,-0.019242240116000175,-0.04230238497257233
1711545077428961300,7.857961181640625,0.007254019379615784,-0.007635809946805239,-0.07589995115995407
1711545077447843800,7.87684375,0.01824958436191082,-0.011300998739898205,-0.06795870512723923
1711545077466726400,7.895726318359375,0.02496909722685814,-0.008857538923621178,-0.023365577682852745
1711545077485609000,7.91460888671875,0.013973532244563103,-0.014966187067329884,0.027947064489126205
1711545077504491500,7.933491455078125,-0.009850194677710533,-0.008246674202382565,0.056657709181308746
1711545077523374000,7.9523740234375,-0.025121813639998436,-0.010079269297420979,0.04321868345141411
1711545077542257000,7.9712568359375,-0.02084576152265072,-0.019242240116000175,-0.0007635809597559273
1711545077561139500,7.990139404296875,-0.003741546766832471,-0.012522728182375431,-0.03741546720266342
1711545077580022000,8.00902197265625,0.013973532244563103,-0.01435532234609127,-0.0386371985077858
1711545077598904600,8.027904541015625,0.0023671009112149477,-0.0204639695584774,-0.020922118797898293
1711545077617787100,8.046787109375,-0.015958841890096664,-0.01435532234609127,-0.005650499369949102
1711545077636669700,8.065669677734375,-0.019013166427612305,-0.024740023538470268,-0.0013744457392022014
1711545077655552300,8.08455224609375,-0.005574141163378954,-0.011911863461136818,-0.004428769461810589
1711545077674434800,8.103434814453125,0.015195261687040329,-0.008857538923621178,-0.008093958720564842
1711545077693317600,8.122317626953125,0.029245151206851006,-0.013133592903614044,-0.0025961752980947495
1711545077712200200,8.1412001953125,0.028634287416934967,-0.010079269297420979,-0.0019853105768561363
1711545077731082800,8.160082763671875,0.026190826669335365,-0.005803215317428112,-0.005039634648710489
1711545077749965300,8.17896533203125,0.013973532244563103,-0.016187917441129684,-0.0062613640911877155
1711545077768848000,8.197847900390625,0.0029779658652842045,-0.019242240116000175,0.003512472379952669
1711545077787730400,8.21673046875,-0.004963276442140341,-0.0009162971982732415,0.018173227086663246
1711545077806613000,8.235613037109376,-0.009850194677710533,0.004581485874950886,0.022449281066656113
1711545077825495800,8.254495849609375,-0.004963276442140341,-0.02412915788590908,0.010842849500477314
1711545077844378400,8.27337841796875,-0.004352411720901728,-0.051618073135614395,-0.009315688163042068
1711545077863261000,8.292260986328126,0.0029779658652842045,-0.032681263983249664,-0.012370011769235134
1711545077882143500,8.3111435546875,0.00603228947147727,-0.008246674202382565,-0.009315688163042068
1711545077901026000,8.330026123046874,-0.00007635809743078426,0.00946840364485979,0.002290742937475443
1711545077919908600,8.34890869140625,-0.00679587060585618,-0.005192350596189499,0.011453714221715927
1711545077938791200,8.367791259765625,-0.005574141163378954,-0.03390299528837204,0.01511890348047018
1711545077957674000,8.386674072265626,0.0017562361899763346,-0.0717766135931015,0.002290742937475443
1711545077976556500,8.405556640625,0.007864884100854397,-0.04062250629067421,-0.006872228812426329
1711545077995439000,8.424439208984374,-0.00007635809743078426,-0.005803215317428112,-0.012370011769235134
1711545078014321700,8.44332177734375,-0.00007635809743078426,-0.0021380267571657896,-0.008093958720564842
1711545078033204200,8.462204345703125,-0.0012980876490473747,-0.019242240116000175,-0.0001527161948615685
1711545078052086800,8.481086669921876,-0.01107192412018776,-0.01740964688360691,0.011453714221715927
1711545078070969600,8.499969482421875,-0.019013166427612305,-0.035735588520765305,0.0102319847792387
1711545078089852200,8.51885205078125,-0.004352411720901728,-0.04001164436340332,0.003512472379952669
1711545078108734700,8.537734619140625,0.011530072428286076,-0.029626941308379173,-0.0001527161948615685
1711545078127617300,8.5566171875,0.015806125476956367,-0.0021380267571657896,-0.0062613640911877155
1711545078146500000,8.5755,0.009086613543331623,-0.010079269297420979,-0.009315688163042068
1711545078165382700,8.594382568359375,-0.003741546766832471,-0.02718348242342472,-0.0019853105768561363
1711545078184265200,8.61326513671875,-0.0019089524867013097,-0.029626941308379173,-0.0001527161948615685
1711545078203147800,8.632147705078125,0.01763872057199478,-0.023518294095993042,-0.006872228812426329
1711545078222030300,8.6510302734375,0.030466880649328232,-0.01435532234609127,-0.01908952370285988
1711545078240913000,8.669912841796876,0.026801692321896553,-0.007024944759905338,-0.03130681812763214
1711545078259795700,8.688795654296875,0.014584396965801716,-0.016798781231045723,-0.027030766010284424
1711545078278678300,8.70767822265625,0.010919207707047462,-0.025961752980947495,-0.011759147047996521
1711545078297560800,8.726560791015626,0.01824958436191082,-0.02107483521103859,0.005345067009329796
1711545078316443400,8.745443359375,0.026801692321896553,-0.011300998739898205,0.015729768201708794
1711545078335326000,8.764325927734374,0.028634287416934967,0.005803215317428112,0.024281874299049377
1711545078354208800,8.783208740234375,0.0243582334369421,-0.0027488914784044027,0.02367101050913334
1711545078373091300,8.80209130859375,0.012751801870763302,-0.01435532234609127,-0.0007635809597559273
1711545078391974000,8.820973876953126,0.009697478264570236,-0.016187917441129684,-0.04169152304530144
1711545078410856400,8.8398564453125,0.01824958436191082,-0.01740964688360691,-0.06673697382211685
1711545078429739300,8.8587392578125,0.02802342176437378,-0.016798781231045723,-0.05451968312263489
1711545078448621800,8.877621826171875,0.011530072428286076,-0.0027488914784044027,-0.008093958720564842
1711545078467504400,8.89650439453125,-0.009850194677710533,-0.007635809946805239,0.04627300798892975
1711545078486387000,8.915386962890626,-0.025732679292559624,-0.010079269297420979,0.07559451460838318
1711545078505269500,8.93426953125,-0.026343543082475662,-0.01740964688360691,0.0591011680662632
1711545078524152300,8.95315234375,-0.012293653562664986,-0.01740964688360691,0.010842849500477314
1711545078543035000,8.972034912109375,-0.00679587060585618,-0.014966187067329884,-0.04169152304530144
1711545078561917400,8.99091748046875,-0.009850194677710533,0.0015271619195118546,-0.058795735239982605
1711545078580800000,9.009800048828126,-0.004352411720901728,-0.006414080038666725,-0.03375028073787689
1711545078599682600,9.0286826171875,-0.0031306820455938578,-0.004581485874950886,-0.0038179049734026194
1711545078618565400,9.0475654296875,0.004810560029000044,-0.021685699000954628,0.009621120058000088
1711545078637448000,9.066447998046876,0.02496909722685814,-0.029626941308379173,0.011453714221715927
1711545078656330500,9.08533056640625,0.02741255611181259,-0.011911863461136818,-0.0038179049734026194
1711545078675213000,9.104213134765626,0.01824958436191082,0.018631376326084137,-0.030085090547800064
1711545078694096000,9.123095947265625,0.00603228947147727,0.016798781231045723,-0.03130681812763214
1711545078712978400,9.141978515625,-0.00007635809743078426,-0.0015271619195118546,0.006566796451807022
1711545078731861000,9.160861083984376,-0.005574141163378954,-0.018631376326084137,0.04993819445371628
1711545078750743600,9.17974365234375,-0.009850194677710533,-0.01435532234609127,0.06520981341600418
1711545078769626400,9.19862646484375,-0.016569707542657852,-0.013133592903614044,0.03527744114398956
1711545078788509000,9.217509033203125,-0.015958841890096664,-0.013133592903614044,-0.008704823441803455
1711545078807391500,9.2363916015625,-0.011682788841426373,-0.012522728182375431,-0.03375028073787689
1711545078826274000,9.255274169921876,-0.012293653562664986,-0.00946840364485979,-0.03130681812763214
1711545078845156900,9.274156982421875,-0.015958841890096664,-0.0027488914784044027,-0.0062613640911877155
1711545078864039400,9.293039306640624,-0.025121813639998436,-0.016187917441129684,0.012675444595515728
1711545078882922000,9.311921875,-0.031230462715029716,-0.03634645417332649,0.002290742937475443
1711545078901804500,9.330804443359375,-0.019624030217528343,-0.029016077518463135,-0.016646064817905426
1711545078920687400,9.349687255859376,-0.008628465235233307,0.011300998739898205,-0.02214384824037552
1711545078939570000,9.36856982421875,-0.00923932995647192,-0.005192350596189499,-0.02519817277789116
1711545078958452500,9.387452392578124,-0.00679587060585618,-0.018631376326084137,-0.03252854943275452
1711545078977335300,9.406335205078125,-0.0031306820455938578,-0.03329212963581085,-0.04474584385752678
1711545078996217900,9.4252177734375,-0.0006872228696011007,-0.023518294095993042,-0.04046979174017906
1711545079015100400,9.444100341796876,-0.00007635809743078426,-0.023518294095993042,-0.039858926087617874
1711545079033983000,9.46298291015625,0.0029779658652842045,-0.025350889191031456,-0.042913250625133514
1711545079052865500,9.481865478515624,0.012140937149524689,-0.011911863461136818,-0.04108065739274025
1711545079071748400,9.500748291015626,0.009697478264570236,-0.03390299528837204,-0.04169152304530144
1711545079090631000,9.519630859375,0.0035888305865228176,-0.04673115536570549,-0.033139415085315704
1711545079109513500,9.538513427734374,-0.00679587060585618,-0.041844237595796585,-0.0154243353754282
1711545079128396300,9.557396240234375,-0.014126247726380825,-0.02412915788590908,0.009010255336761475
1711545079147278800,9.57627880859375,-0.012904518283903599,-0.01435532234609127,0.024892739951610565
1711545079166161400,9.595161376953126,-0.005574141163378954,-0.019242240116000175,0.027336198836565018
1711545079185044000,9.6140439453125,0.0029779658652842045,-0.041844237595796585,0.011453714221715927
1711545079203926800,9.6329267578125,0.013362666592001915,-0.04734202101826668,-0.0007635809597559273
1711545079222809300,9.651809326171875,0.020693045109510422,-0.06322450190782547,0.01511890348047018
1711545079241692000,9.67069189453125,0.015806125476956367,-0.05528326332569122,0.037720900028944016
1711545079260574700,9.68957470703125,0.0066431546583771706,-0.019242240116000175,0.06520981341600418
1711545079279457300,9.708457275390625,0.012751801870763302,-0.007024944759905338,0.07620538026094437
1711545079298339800,9.72733984375,-0.0019089524867013097,-0.010690134018659592,0.03711003437638283
1711545079317222700,9.74622265625,0.004810560029000044,-0.03145953640341759,0.0010690133785828948
1711545079336105200,9.765105224609375,0.023747367784380913,-0.03695731982588768,-0.0038179049734026194
1711545079354987800,9.78398779296875,0.015195261687040329,-0.005192350596189499,0.018173227086663246
1711545079373870300,9.802870361328125,-0.0012980876490473747,0.038789913058280945,0.041386090219020844
1711545079392753200,9.821753173828125,0.0023671009112149477,0.03145953640341759,0.06215549260377884
1711545079411635700,9.8406357421875,0.014584396965801716,0.007635809946805239,0.10247256606817245
1711545079430518300,9.859518310546875,0.007864884100854397,0.02718348242342472,0.13851359486579895
1711545079449400800,9.87840087890625,0.0029779658652842045,0.03145953640341759,0.13912445306777954
1711545079468283600,9.89728369140625,0.012751801870763302,0.019853105768561363,0.10247256606817245
1711545079487166200,9.916166259765625,0.026801692321896553,0.0027488914784044027,0.040775224566459656
1711545079506048800,9.935048828125,0.03107774630188942,0.021685699000954628,-0.0062613640911877155
1711545079524931600,9.953931640625,0.023136503994464874,0.03390299528837204,-0.017256930470466614
1711545079543814100,9.972814208984374,0.00603228947147727,0.012522728182375431,0.002901607658714056
1711545079562696700,9.99169677734375,-0.0012980876490473747,-0.00946840364485979,0.031612250953912735
1711545079581579500,10.01057958984375,0.007864884100854397,-0.02779434807598591,0.04810560122132301
1711545079600462000,10.029462158203126,0.014584396965801716,-0.029626941308379173,0.031001387163996696
1711545079619344600,10.0483447265625,0.018860450014472008,-0.012522728182375431,0.005955931730568409
1711545079638227200,10.067227294921874,0.022525638341903687,-0.0027488914784044027,-0.017256930470466614
1711545079657110000,10.086110107421876,0.029856016859412193,0.003970621153712273,-0.027030766010284424
1711545079675992600,10.10499267578125,0.026801692321896553,-0.011300998739898205,0.00045814859913662076
1711545079694875100,10.123875244140624,0.00847574882209301,-0.01435532234609127,0.044440411031246185
1711545079713758000,10.142758056640625,-0.013515383005142212,-0.019242240116000175,0.06215549260377884
1711545079732640500,10.161640625,-0.014737112447619438,-0.016187917441129684,0.05238165333867073
1711545079751523000,10.180523193359376,-0.005574141163378954,-0.008857538923621178,0.03955349326133728
1711545079770406000,10.199406005859375,-0.00679587060585618,0.01740964688360691,0.02306014485657215
1711545079789288400,10.218288330078124,-0.00679587060585618,0.04978547990322113,0.005955931730568409
1711545079808171000,10.2371708984375,-0.014126247726380825,0.04001164436340332,0.004123337101191282
1711545079827053600,10.256053466796875,-0.041615162044763565,0.06750056147575378,-0.010537417605519295
1711545079845936400,10.274936279296876,-0.03306305781006813,0.13225223124027252,-0.01908952370285988
1711545079864819000,10.29381884765625,-0.014737112447619438,0.04734202101826668,-0.01847865991294384
1711545079883701500,10.312701416015624,-0.00007635809743078426,-0.015577051788568497,0.016340631991624832
1711545079902584300,10.331584228515625,-0.01107192412018776,-0.02107483521103859,0.04260781779885292
1711545079921467000,10.350466796875,-0.015347977168858051,-0.013133592903614044,0.04260781779885292
1711545079940349400,10.369349365234376,0.0029779658652842045,-0.018631376326084137,0.018784092739224434
1711545079959232300,10.388232177734375,0.025579962879419327,-0.029016077518463135,-0.008093958720564842
1711545079978114800,10.40711474609375,0.03535379841923714,-0.03451386094093323,-0.02214384824037552
1711545079996997400,10.425997314453125,0.021914774551987648,-0.03817904740571976,-0.028863361105322838
1711545080015880200,10.444880126953125,0.020082179456949234,-0.025350889191031456,-0.036804601550102234
1711545080034762800,10.4637626953125,0.042073313146829605,-0.022296564653515816,-0.03741546720266342
1711545080053645300,10.482645263671875,0.04818195849657059,0.01802051067352295,-0.0007635809597559273
1711545080072528000,10.50152783203125,0.016416991129517555,0.06261363625526428,0.060933761298656464
1711545080091410700,10.52041064453125,-0.019013166427612305,0.06444623321294785,0.10369429737329483
1711545080110293200,10.539293212890625,-0.021456625312566757,0.035124726593494415,0.09392046183347702
1711545080129175800,10.55817578125,0.007254019379615784,0.044898562133312225,0.05543597787618637
1711545080148058600,10.57705859375,0.02802342176437378,0.09621120244264603,0.0102319847792387
1711545080166941200,10.595941162109375,0.023136503994464874,0.1230892539024353,-0.030085090547800064
1711545080185823700,10.61482373046875,0.004199695307761431,0.11148282140493393,-0.05757400393486023
1711545080204706600,10.63370654296875,-0.04894553869962692,0.05406153202056885,-0.05818486958742142
1711545080223589000,10.652589111328124,-0.11064288020133972,0.018631376326084137,-0.04046979174017906
1711545080242471700,10.6714716796875,-0.13996438682079315,0.003359756199643016,-0.033139415085315704
1711545080261354500,10.6903544921875,-0.12530364096164703,-0.012522728182375431,-0.04535670951008797
1711545080280237000,10.709237060546876,-0.10514509677886963,-0.022907428443431854,-0.0899498388171196
1711545080299119600,10.72811962890625,-0.08804088830947876,-0.018631376326084137,-0.1571449637413025
1711545080318002400,10.74700244140625,-0.07704532146453857,-0.0204639695584774,-0.2023489624261856
1711545080336885000,10.765885009765626,-0.0965929925441742,-0.04734202101826668,-0.1980729103088379
1711545080355767600,10.784767578125,-0.11491893976926804,-0.03756818547844887,-0.15592323243618011
1711545080374650400,10.803650390625,-0.10086904466152191,-0.04550942778587341,-0.12660172581672668
1711545080393533000,10.822532958984375,-0.06421715766191483,-0.0766635313630104,-0.1314886510372162
1711545080412415500,10.84141552734375,-0.01107192412018776,-0.17867794632911682,-0.18829907476902008
1711545080431298300,10.86029833984375,0.05306887626647949,-0.2360992431640625,-0.27809619903564453
1711545080450180900,10.879180908203125,0.10743584483861923,-0.19211697578430176,-0.337350070476532
1711545080469063400,10.8980634765625,0.10865757614374161,-0.11148282140493393,-0.35811948776245117
1711545080487946000,10.916946044921875,0.07200568914413452,-0.0870482325553894,-0.3324631452560425
1711545080506828800,10.935828857421875,0.030466880649328232,-0.09865466505289078,-0.25793763995170593
1711545080525711400,10.95471142578125,-0.038560837507247925,-0.1493564397096634,-0.1565341055393219
1711545080544594000,10.973593994140625,-0.11980585753917694,-0.19944734871387482,-0.08261945843696594
1711545080563476700,10.992476806640624,-0.18211406469345093,-0.20127993822097778,-0.045967575162649155
1711545080582359300,11.011359375,-0.2456440031528473,-0.19394956529140472,-0.03436114266514778
1711545080601241900,11.030241943359375,-0.2951240539550781,-0.18234314024448395,-0.016646064817905426
1711545080620124700,11.049124755859374,-0.32383468747138977,-0.1389717310667038,0.02306014485657215
1711545080639007200,11.06800732421875,-0.3323867917060852,-0.10842850059270859,0.057268574833869934
1711545080657889800,11.086889892578125,-0.3006218373775482,-0.09926552325487137,0.08597921580076218
1711545080676772600,11.105772705078126,-0.2450331300497055,-0.08949168771505356,0.10063996911048889
1711545080695655200,11.1246552734375,-0.2089921087026596,-0.022907428443431854,0.08903354406356812
1711545080714537700,11.143537841796874,-0.17172935605049133,0.03023780696094036,0.04260781779885292
1711545080733420500,11.162420654296875,-0.13813179731369019,0.038789913058280945,-0.011759147047996521
1711545080752303000,11.18130322265625,-0.10758855938911438,0.03695731982588768,-0.025809036567807198
1711545080771185700,11.200185546875,-0.0807105079293251,0.05589412897825241,0.007177661173045635
1711545080790068500,11.219068359375,-0.050778135657310486,0.0717766135931015,0.04566214233636856
1711545080808951000,11.237950927734374,-0.03306305781006813,0.08277218043804169,0.037720900028944016
1711545080827833600,11.25683349609375,-0.019013166427612305,0.08643736690282822,-0.012370011769235134
1711545080846716200,11.275716064453125,-0.00679587060585618,0.05894844979047775,-0.07528908550739288
1711545080865599000,11.294598876953126,0.0005345066892914474,0.08277218043804169,-0.11988221108913422
1711545080884481500,11.3134814453125,0.03962985426187515,0.2110537886619568,-0.1314886510372162
1711545080903364000,11.332364013671874,0.09949459880590439,0.36621344089508057,-0.11743875592947006
1711545080922247000,11.351246826171876,0.13370302319526672,0.3790415823459625,-0.1101083755493164
1711545080941129500,11.37012939453125,0.15263983607292175,0.26542073488235474,-0.11682789027690887
1711545080960012000,11.389011962890624,0.19295690953731537,0.1737910360097885,-0.11499529331922531
1711545080978894800,11.407894775390625,0.20945025980472565,0.09560033679008484,-0.141262486577034
1711545080997777400,11.42677734375,0.21800236403942108,0.1078176349401474,-0.1821904182434082
1711545081016660000,11.445659912109376,0.23999349772930145,0.28496840596199036,-0.15409064292907715
1711545081035542800,11.464542724609375,0.274812787771225,0.37843072414398193,-0.0539088174700737
1711545081054425300,11.48342529296875,0.26564982533454895,0.26908594369888306,-0.03130681812763214
1711545081073308000,11.502307861328125,0.24121522903442383,0.06872228533029556,-0.13515383005142212
1711545081092190700,11.521190673828125,0.2021198868751526,-0.14752385020256042,-0.30253079533576965
1711545081111073300,11.5400732421875,0.16852232813835144,-0.18295399844646454,-0.35445427894592285
1711545081129955800,11.558955810546875,0.17157664895057678,-0.0974329337477684,-0.25121814012527466
1711545081148838400,11.57783837890625,0.2070067971944809,0.0015271619195118546,-0.06001746281981468
1711545081167721200,11.59672119140625,0.26137375831604004,0.0204639695584774,0.13545925915241241
1711545081186603800,11.615603759765625,0.31757333874702454,-0.029016077518463135,0.2863428592681885
1711545081205486300,11.634486328125,0.32795801758766174,0.0027488914784044027,0.44638943672180176
1711545081224369200,11.653369140625,0.24121522903442383,0.1078176349401474,0.6650790572166443
1711545081243251700,11.672251708984374,0.05734493210911751,0.21777328848838806,0.8807142972946167
1711545081262134300,11.69113427734375,-0.13019055128097534,0.272751122713089,0.9931133985519409
1711545081281017000,11.71001708984375,-0.2664133906364441,0.35582873225212097,0.957683265209198
1711545081299899600,11.728899658203124,-0.36476263403892517,0.41935867071151733,0.7896954417228699
1711545081318782200,11.7477822265625,-0.4301251769065857,0.41813695430755615,0.49281516671180725
1711545081337664800,11.766664794921875,-0.4563923478126526,0.41263917088508606,0.10613775253295898
1711545081356547600,11.785547607421876,-0.38186684250831604,0.4468475878238678,-0.30253079533576965
1711545081375430100,11.80443017578125,-0.2957349121570587,0.416304349899292,-0.6165152788162231
1711545081394312700,11.823312744140624,-0.11430807411670685,0.5427533388137817,-0.6220130324363708
1711545081413195500,11.842195556640625,0.36888596415519714,0.6264418363571167,-0.4601338803768158
1711545081432078000,11.861078125,0.7427352070808411,0.4224129915237427,-0.347123920917511
1711545081450960600,11.879960693359376,0.7390699982643127,0.129197895526886,-0.2835939824581146
1711545081469843500,11.898843505859375,0.5643627047538757,0.04550942778587341,-0.23961171507835388
1711545081488726000,11.91772607421875,0.34872743487358093,0.19150610268115997,-0.2591593861579895
1711545081507608600,11.936608642578125,0.17890702188014984,0.272751122713089,-0.3477347791194916
1711545081526491400,11.955491455078125,0.14714205265045166,0.23915356397628784,-0.42103853821754456
1711545081545374000,11.9743740234375,0.22533275187015533,0.1438586562871933,-0.43020153045654297
1711545081564256500,11.993256591796875,0.2735910713672638,0.015577051788568497,-0.3825540542602539
1711545081583139000,12.01213916015625,0.2424369603395462,-0.0974329337477684,-0.295811265707016
1711545081602022000,12.03102197265625,0.1550832986831665,-0.1597411334514618,-0.1821904182434082
1711545081620904400,12.049904541015625,0.03413207083940506,-0.15668681263923645,-0.045967575162649155
1711545081639787000,12.068787109375,-0.07276926934719086,-0.07849612087011337,0.13423752784729004
1711545081658669800,12.087669921875,-0.13019055128097534,-0.08643736690282822,0.2735147178173065
1711545081677552400,12.106552490234375,-0.11736239492893219,-0.13041962683200836,0.31871870160102844
1711545081696435000,12.12543505859375,-0.07643445581197739,-0.1029307171702385,0.31871870160102844
1711545081715317500,12.1443173828125,-0.0654388889670372,-0.035124726593494415,0.31322091817855835
1711545081734200300,12.163200439453124,-0.08193223923444748,-0.04550942778587341,0.2741255760192871
1711545081753083000,12.182082763671875,-0.08743002265691757,-0.0821613147854805,0.22769984602928162
1711545081771965400,12.20096533203125,-0.08376483619213104,0.016798781231045723,0.2551887631416321
1711545081790848300,12.21984814453125,-0.10392337292432785,0.11881320178508759,0.33765551447868347
1711545081809730800,12.238730712890625,-0.11552979797124863,0.016798781231045723,0.3400989770889282
1711545081828613400,12.25761328125,-0.07948877662420273,-0.22266021370887756,0.24602578580379486
1711545081847496000,12.276495849609375,-0.03550651669502258,-0.4321868419647217,0.12202023714780807
1711545081866378800,12.295378662109375,0.0005345066892914474,-0.5415316224098206,0.07742711156606674
1711545081885261300,12.31426123046875,0.009697478264570236,-0.517707884311676,0.17944152653217316
1711545081904144000,12.333143798828125,0.020082179456949234,-0.3222311735153198,0.4286743700504303
1711545081923026400,12.3520263671875,-0.02084576152265072,-0.0308486707508564,0.7170025110244751
1711545081941909200,12.3709091796875,-0.13996438682079315,0.06505709886550903,0.7255546450614929
1711545081960791800,12.389791748046875,-0.23098324239253998,-0.25381430983543396,0.33826637268066406
1711545081979674400,12.40867431640625,-0.2541961073875427,-0.5012145638465881,-0.19013166427612305
1711545081998557200,12.42755712890625,-0.18516838550567627,-0.4621191918849945,-0.44608399271965027
1711545082017439700,12.446439697265625,0.015195261687040329,-0.30451610684394836,-0.22250749170780182
1711545082036322300,12.465322265625,0.15447242558002472,0.19333870708942413,0.33460119366645813
1711545082055204900,12.484204833984375,0.03535379841923714,0.5360338687896729,0.9094249606132507
1711545082074087700,12.503087646484374,-0.2242637276649475,0.3594939112663269,1.2105813026428223
1711545082092970200,12.52197021484375,-0.4136318266391754,0.08521563559770584,1.1305580139160156
1711545082111852800,12.540852783203125,-0.5602393746376038,0.019242240116000175,0.771980345249176
1711545082130735400,12.5597353515625,-0.5553524494171143,0.05711585655808449,0.3614792227745056
1711545082149618200,12.5786181640625,-0.3482692837715149,0.22510367631912231,-0.012980876490473747
1711545082168500700,12.597500732421874,-0.0025198173243552446,0.3484983444213867,-0.4033234715461731
1711545082187383300,12.61638330078125,0.4220311939716339,0.08155044913291931,-0.7869465351104736
1711545082206265900,12.635265869140625,0.6272817850112915,-0.323452889919281,-0.9677625298500061
1711545082225148700,12.654148681640624,0.47761988639831543,-0.7834340929985046,-0.930499792098999
1711545082244031200,12.67303125,0.1404225379228592,-0.7724385261535645,-0.6971494555473328
1711545082262913800,12.691913818359374,-0.22365286946296692,-0.2568686306476593,-0.356286883354187
1711545082281796600,12.710796630859376,-0.43684467673301697,0.20922118425369263,-0.0019853105768561363
1711545082300679200,12.72967919921875,-0.35071274638175964,0.3295615613460541,0.2790125012397766
1711545082319561700,12.748561767578124,-0.12408190965652466,0.250149130821228,0.44211336970329285
1711545082338444300,12.7674443359375,0.057955797761678696,0.16646064817905426,0.49220430850982666
1711545082357326800,12.786326904296875,0.16974404454231262,0.1951712965965271,0.4225656986236572
1711545082376209700,12.805209716796876,0.22472187876701355,0.3020726442337036,0.24174973368644714
1711545082395092200,12.82409228515625,0.24610215425491333,0.3692677617073059,0.0010690133785828948
1711545082413974800,12.842974853515624,0.2687041461467743,0.24526220560073853,-0.2548833191394806
1711545082432857300,12.861857421875,0.37865981459617615,0.22388194501399994,-0.5456549525260925
1711545082451740200,12.880740234375,0.47639816999435425,0.281914085149765,-0.6458367705345154
1711545082470622700,12.899622802734376,0.43913543224334717,0.23182319104671478,-0.5688678026199341
1711545082489505300,12.91850537109375,0.21433718502521515,0.060781046748161316,-0.4234820008277893
1711545082508387800,12.937387939453124,0.0066431546583771706,-0.11881320178508759,-0.25732678174972534
1711545082527270700,12.956270751953125,-0.1375209391117096,-0.2935205399990082,-0.16508620977401733
1711545082546153200,12.9751533203125,-0.20777037739753723,-0.34116798639297485,-0.12721258401870728
1711545082565035800,12.994035888671876,-0.15706861019134521,-0.08888082206249237,-0.030085090547800064
1711545082583918300,13.01291845703125,0.06467530876398087,0.43279770016670227,0.19654574990272522
1711545082602801000,13.03180078125,0.3646099269390106,0.7180715203285217,0.3510945439338684
1711545082621683700,13.05068359375,0.5594757795333862,0.5488619804382324,0.2906189262866974
1711545082640566300,13.069566162109375,0.520991325378418,0.129197895526886,0.10797034949064255
1711545082659448800,13.08844873046875,0.21433718502521515,-0.23854269087314606,-0.06490438431501389
1711545082678331400,13.107331298828125,-0.12286017835140228,-0.3283398151397705,-0.11438442766666412
1711545082697214200,13.126214111328125,-0.2199876755475998,-0.11148282140493393,0.013897174037992954
1711545082716096800,13.1450966796875,-0.12041672319173813,0.2458730787038803,0.25579962134361267
1711545082734979300,13.163979248046875,0.09705114364624023,0.38759371638298035,0.47204574942588806
1711545082753862000,13.18286181640625,0.3310123383998871,0.33567020297050476,0.5856665968894958
1711545082772744400,13.201744384765625,0.367053359746933,0.35643959045410156,0.6119337677955627
1711545082791627300,13.220627197265625,0.21006113290786743,0.4633409380912781,0.5697841048240662
1711545082810509800,13.239509765625,0.032910339534282684,0.4932733178138733,0.4329504072666168
1711545082829392400,13.258392333984375,-0.05199986323714256,0.4120282828807831,0.16844595968723297
1711545082848275000,13.27727490234375,-0.06604975461959839,0.21471896767616272,-0.16752967238426208
1711545082867157800,13.29615771484375,-0.11858412623405457,0.007024944759905338,-0.47723811864852905
1711545082886040300,13.315040283203125,-0.18700097501277924,-0.08582650125026703,-0.6513345837593079
1711545082904923000,13.3339228515625,-0.12835796177387238,-0.05283980444073677,-0.633619487285614
1711545082923805400,13.352805419921875,0.06650790572166443,-0.0015271619195118546,-0.4442514181137085
1711545082942688000,13.37168798828125,0.2894735336303711,0.06566796451807022,-0.1773035079240799
1711545082961570800,13.39057080078125,0.4428006112575531,0.22815799713134766,0.044440411031246185
1711545082980453400,13.409453369140625,0.4684569239616394,0.31490078568458557,0.13790272176265717
1711545082999336200,13.428336181640624,0.34811657667160034,0.30146175622940063,0.1000291109085083
1711545083018218800,13.44721875,0.1245400533080101,0.19639302790164948,-0.05513054504990578
1711545083037101300,13.466101318359375,-0.07460185885429382,0.03756818547844887,-0.29397866129875183
1711545083055984000,13.484984130859376,-0.14668390154838562,-0.09071341902017593,-0.46135562658309937
1711545083074866700,13.50386669921875,-0.095982126891613,-0.12431098520755768,-0.4228711426258087
1711545083093749200,13.522749267578124,-0.005574141163378954,-0.0412333719432354,-0.23961171507835388
1711545083112631800,13.5416318359375,0.03840812295675278,0.07055488228797913,-0.03191768378019333
1711545083131514400,13.560514404296875,0.018860450014472008,0.07360920310020447,0.06643154472112656
1711545083150397000,13.57939697265625,-0.015347977168858051,0.003359756199643016,0.024892739951610565
1711545083169279700,13.59827978515625,-0.04650207981467247,-0.12003492563962936,-0.09117157012224197
1711545083188162300,13.617162353515624,-0.06360629200935364,-0.22388194501399994,-0.16875138878822327
1711545083207044900,13.636044921875,-0.07521272450685501,-0.23915356397628784,-0.14431680738925934
1711545083225927400,13.654927490234375,-0.06849320977926254,-0.16340632736682892,-0.025809036567807198
1711545083244810000,13.67381005859375,-0.04283689334988594,-0.10659590363502502,0.10797034949064255
1711545083263692500,13.692692626953125,0.00847574882209301,-0.11636973917484283,0.18860450387001038
1711545083282575400,13.711575439453124,0.07567087560892105,-0.11392628401517868,0.2393062710762024
1711545083301458000,13.7304580078125,0.13858994841575623,-0.10231985151767731,0.29306238889694214
1711545083320340500,13.749340576171875,0.20883940160274506,-0.0668896958231926,0.3572031855583191
1711545083339223000,13.76822314453125,0.2540434002876282,-0.04001164436340332,0.3510945439338684
1711545083358105600,13.787105712890625,0.23938263952732086,-0.11942406743764877,0.20021092891693115
1711545083376988400,13.805988525390624,0.18379394710063934,-0.24342961609363556,-0.03558287397027016
1711545083395871000,13.82487109375,0.10560324788093567,-0.34666576981544495,-0.2542724609375
1711545083414753500,13.84375341796875,0.0475710928440094,-0.41447174549102783,-0.32391104102134705
1711545083433636000,13.862635986328126,0.0524580143392086,-0.3637699782848358,-0.17791436612606049
1711545083452518700,13.8815185546875,0.07444914430379868,-0.1334739476442337,0.1409570425748825
1711545083471401200,13.900401123046874,0.022525638341903687,0.15118902921676636,0.48731738328933716
1711545083490284000,13.919283935546876,-0.09537126123905182,0.1640172004699707,0.6455313563346863
1711545083509166600,13.93816650390625,-0.1943313628435135,0.04550942778587341,0.5813905596733093
1711545083528049200,13.957049072265624,-0.26763513684272766,0.003970621153712273,0.3883572816848755
1711545083546931700,13.975931640625,-0.29451319575309753,0.08521563559770584,0.17883066833019257
1711545083565814300,13.994814208984375,-0.2853502035140991,0.15241076052188873,-0.0013744457392022014
1711545083584696800,14.01369677734375,-0.22731806337833405,0.09193515032529831,-0.19501857459545135
1711545083603579400,14.032579345703125,-0.08009964227676392,-0.08765909820795059,-0.4540252387523651
1711545083622462200,14.051462158203124,0.11659881472587585,-0.2507599890232086,-0.7319687008857727
1711545083641344800,14.0703447265625,0.2925278842449188,-0.27947062253952026,-0.9549343585968018
1711545083660227300,14.089227294921875,0.3701077103614807,-0.21349723637104034,-1.0331250429153442
1711545083679110000,14.10810986328125,0.30596688389778137,-0.0766635313630104,-0.9341649413108826
1711545083697992400,14.126992431640625,0.11843141168355942,0.13775001466274261,-0.6580541133880615
1711545083716875000,14.145875,-0.07948877662420273,0.30451610684394836,-0.23044873774051666
1711545083735757600,14.164757568359375,-0.16928590834140778,0.3442223072052002,0.25213444232940674
1711545083754640400,14.183640380859375,-0.12591449916362762,0.3344484567642212,0.6265945434570312
1711545083773523000,14.20252294921875,-0.03672824427485466,0.34727662801742554,0.7878628373146057
1711545083792405500,14.221405517578125,0.04024071618914604,0.33567020297050476,0.6925679445266724
1711545083811288000,14.2402880859375,0.12759438157081604,0.3075704276561737,0.41645705699920654
1711545083830170600,14.259170654296875,0.2021198868751526,0.2525925934314728,0.07009673118591309
1711545083849053200,14.27805322265625,0.2534325122833252,0.1701258420944214,-0.21029019355773926
1711545083867935700,14.296935791015626,0.31635159254074097,0.10598503798246384,-0.32268932461738586
1711545083886818300,14.315818359375,0.3951531648635864,0.1444695144891739,-0.25793763995170593
1711545083905701000,14.334701171875,0.44157886505126953,0.22876885533332825,-0.1314886510372162
1711545083924583700,14.353583740234376,0.3804923892021179,0.06444623321294785,-0.13515383005142212
1711545083943466200,14.37246630859375,0.19051344692707062,-0.2367101013660431,-0.3526217043399811
1711545083962348800,14.391348876953124,0.039018988609313965,-0.282524973154068,-0.5346593856811523
1711545083981231400,14.4102314453125,-0.04344775900244713,-0.011911863461136818,-0.3862192630767822
1711545084000114000,14.429114013671875,-0.02084576152265072,0.4877755343914032,0.07803797721862793
1711545084018996500,14.44799658203125,0.09949459880590439,0.7541125416755676,0.5917752385139465
1711545084037879000,14.466879150390625,0.24976733326911926,0.6973021626472473,0.9137009978294373
1711545084056761600,14.48576171875,0.3310123383998871,0.499381959438324,0.9332486391067505
1711545084075644200,14.50464404296875,0.3346775472164154,0.2733619809150696,0.6693550944328308
1711545084094527000,14.52352685546875,0.2827540338039398,0.09682206809520721,0.19837833940982819
1711545084113409500,14.542409423828126,0.18929173052310944,-0.05894844979047775,-0.32940882444381714
1711545084132292000,14.5612919921875,0.09582941234111786,-0.17195843160152435,-0.6611084342002869
1711545084151174700,14.580174560546874,0.0683404952287674,-0.2605338394641876,-0.7063124179840088
1711545084170057200,14.59905712890625,0.12698352336883545,-0.24709481000900269,-0.48212501406669617
1711545084188939800,14.617939697265625,0.19356778264045715,0.015577051788568497,-0.08200860023498535
1711545084207822300,14.636822265625,0.19295690953731537,0.3179551064968109,0.28817546367645264
1711545084226705000,14.655704833984375,0.14897464215755463,0.43401941657066345,0.4488328993320465
1711545084245587500,14.67458740234375,0.1037706509232521,0.4358520209789276,0.4127918779850006
1711545084264470000,14.693469970703125,0.08483384549617767,0.35766133666038513,0.25091269612312317
1711545084283352800,14.712352783203125,0.11843141168355942,0.2367101013660431,0.03649916872382164
1711545084302235400,14.7312353515625,0.18501566350460052,0.13591741025447845,-0.14004075527191162
1711545084321118000,14.750117919921875,0.23327398300170898,0.08582650125026703,-0.21151192486286163
1711545084340000500,14.76900048828125,0.2173915058374405,0.061391908675432205,-0.18524473905563354
1711545084358883000,14.787883056640625,0.170965775847435,0.04673115536570549,-0.11499529331922531
1711545084377765600,14.806765625,0.12087486684322357,0.07971785217523575,0.0010690133785828948
1711545084396648200,14.825648193359376,0.05123628303408623,0.1432477980852127,0.11835505068302155
1711545084415530800,14.84453076171875,-0.013515383005142212,0.15485422313213348,0.15989385545253754
1711545084434413300,14.863413330078124,-0.0550541877746582,0.09987638890743256,0.11468986421823502
1711545084453295900,14.8822958984375,-0.060551971197128296,0.04245510324835777,0.060322895646095276
1711545084472178400,14.901178466796875,-0.03917170315980911,0.003359756199643016,0.02611446939408779
1711545084491061000,14.92006103515625,-0.009850194677710533,-0.028405211865901947,-0.012980876490473747
1711545084509943600,14.938943603515625,-0.009850194677710533,-0.06383536756038666,-0.05451968312263489
1711545084528826000,14.957826171875,-0.04955640435218811,-0.10231985151767731,-0.04108065739274025
1711545084547709000,14.976708984375,-0.09842558950185776,-0.08826996386051178,0.01206457894295454
1711545084566591500,14.995591552734375,-0.11919499188661575,-0.04978547990322113,0.0694858655333519
1711545084585474000,15.01447412109375,-0.12408190965652466,-0.011911863461136818,0.10674861818552017
1711545084604356600,15.033356689453125,-0.12957969307899475,-0.014966187067329884,0.10308343172073364
1711545084623239200,15.0522392578125,-0.15584687888622284,-0.0461202897131443,0.07864884287118912
1711545084642121700,15.071121826171876,-0.189444437623024,-0.0772743970155716,0.04993819445371628
1711545084661004300,15.09000439453125,-0.21876594424247742,-0.11087195575237274,0.007788525894284248
1711545084679886800,15.108886962890624,-0.22365286946296692,-0.12247838824987411,-0.06001746281981468
1711545084698769400,15.127769287109375,-0.21143557131290436,-0.13958260416984558,-0.15286891162395477
1711545084717652000,15.14665185546875,-0.20349432528018951,-0.1536324918270111,-0.20967933535575867
1711545084736534500,15.165534423828126,-0.189444437623024,-0.17134757339954376,-0.18829907476902008
1711545084755417000,15.1844169921875,-0.16623157262802124,-0.16035200655460358,-0.11499529331922531
1711545084774299600,15.203299560546874,-0.13080142438411713,-0.13958260416984558,-0.05940660089254379
1711545084793182200,15.22218212890625,-0.10697769373655319,-0.12614357471466064,-0.045967575162649155
1711545084812064800,15.241064697265625,-0.10331250727176666,-0.16646064817905426,-0.09728021919727325
1711545084830947300,15.259947265625,-0.12347104400396347,-0.2055560052394867,-0.15470150113105774
1711545084849830000,15.278829833984375,-0.15706861019134521,-0.20616686344146729,-0.1669187992811203
1711545084868712400,15.29771240234375,-0.17539454996585846,-0.19394956529140472,-0.1314886510372162
1711545084887595000,15.316594970703125,-0.1931096315383911,-0.19944734871387482,-0.07589995115995407
1711545084906477600,15.3354775390625,-0.22120940685272217,-0.22204934060573578,-0.02214384824037552
1711545084925360000,15.354360107421876,-0.24442227184772491,-0.25442516803741455,-0.012370011769235134
1711545084944242700,15.37324267578125,-0.2456440031528473,-0.2562577724456787,-0.027030766010284424
1711545084963125200,15.392125244140624,-0.25358524918556213,-0.22510367631912231,-0.039248060435056686
1711545084982007800,15.4110078125,-0.30489787459373474,-0.2208276242017746,-0.06368265300989151
1711545085000890400,15.429890380859375,-0.3684278130531311,-0.25503605604171753,-0.09422589093446732
1711545085019773000,15.44877294921875,-0.39225155115127563,-0.2788597643375397,-0.11377356201410294
1711545085038655500,15.467655517578125,-0.33544111251831055,-0.38820457458496094,-0.2023489624261856
1711545085057538000,15.4865380859375,-0.20777037739753723,-0.5549706816673279,-0.3984365463256836
1711545085076420600,15.505420654296875,-0.11247547715902328,-0.7021890878677368,-0.6299542784690857
1711545085095303200,15.52430322265625,-0.13813179731369019,-0.7974839806556702,-0.7606793642044067
1711545085114185700,15.543185791015626,-0.28901541233062744,-0.7785471677780151,-0.6971494555473328
1711545085133068300,15.562068359375,-0.525420069694519,-0.581848680973053,-0.38011062145233154
1711545085151950800,15.580950927734374,-0.7337249517440796,-0.32650721073150635,0.05482511222362518
1711545085170833400,15.59983349609375,-0.7899245023727417,-0.23732095956802368,0.351705402135849
1711545085189716000,15.618716064453125,-0.7306706309318542,-0.26908594369888306,0.4072940945625305
1711545085208598500,15.6375986328125,-0.6433169841766357,-0.34727662801742554,0.2997818887233734
1711545085227481000,15.656481201171875,-0.5730675458908081,-0.374765545129776,0.13423752784729004
1711545085246363600,15.67536376953125,-0.5138136148452759,-0.3539961278438568,-0.03558287397027016
1711545085265246200,15.69424609375,-0.42279478907585144,-0.2910770773887634,-0.17486004531383514
1711545085284128800,15.713128662109375,-0.3055087625980377,-0.30512696504592896,-0.3068068325519562
1711545085303011300,15.73201123046875,-0.22059854865074158,-0.3851502537727356,-0.42531460523605347
1711545085321894000,15.750893798828125,-0.23220497369766235,-0.4169152081012726,-0.5114465355873108
1711545085340776400,15.7697763671875,-0.28840452432632446,-0.3692677617073059,-0.5432115197181702
1711545085359659000,15.788658935546875,-0.3274998664855957,-0.3087921440601349,-0.4857902228832245
1711545085378541600,15.80754150390625,-0.3849211633205414,-0.27091851830482483,-0.3410152494907379
1711545085397424000,15.826424072265626,-0.48876819014549255,-0.22327107191085815,-0.13759729266166687
1711545085416306700,15.845306640625,-0.5510764122009277,-0.11881320178508759,0.06643154472112656
1711545085435189200,15.864189208984374,-0.4918225109577179,-0.02107483521103859,0.20021092891693115
1711545085454071800,15.88307177734375,-0.36598435044288635,0.007024944759905338,0.25763222575187683
1711545085472954400,15.901954345703125,-0.2664133906364441,-0.02412915788590908,0.2533561587333679
1711545085491837000,15.9208369140625,-0.23342670500278473,-0.047952886670827866,0.22098033130168915
1711545085510719500,15.939719482421875,-0.26885685324668884,-0.057726722210645676,0.15012001991271973
1711545085529602000,15.95860205078125,-0.3323867917060852,-0.041844237595796585,0.040775224566459656
1711545085548484600,15.977484619140625,-0.3800342381000519,-0.02718348242342472,-0.049021899700164795
1711545085567367200,15.9963671875,-0.3989710509777069,-0.005803215317428112,-0.014202605932950974
1711545085586249700,16.015249755859376,-0.3678169548511505,0.015577051788568497,0.12690715491771698
1711545085605132300,16.03413232421875,-0.24625486135482788,0.10170898586511612,0.32299473881721497
1711545085624014800,16.053014892578126,-0.10942115634679794,0.06383536756038666,0.4237874448299408
1711545085642897400,16.0718974609375,-0.10881029069423676,-0.22327107191085815,0.20570871233940125
1711545085661780000,16.090780029296877,-0.2041051983833313,-0.5360338687896729,-0.27626359462738037
1711545085680662500,16.10966259765625,-0.3171151876449585,-0.4987711012363434,-0.6140718460083008
1711545085699544800,16.128544921875,-0.385532021522522,-0.30024003982543945,-0.6293434500694275
1711545085718427400,16.147427490234374,-0.21754421293735504,-0.1279761642217636,-0.33918267488479614
1711545085737310000,16.16631005859375,0.13370302319526672,-0.012522728182375431,0.11713331937789917
1711545085756192500,16.185192626953125,0.3102429509162903,0.021685699000954628,0.5569559335708618
1711545085775075000,16.204074951171876,0.18379394710063934,-0.04062250629067421,0.8868229389190674
1711545085793957600,16.22295751953125,-0.07826705276966095,-0.07238747924566269,1.0615302324295044
1711545085812840200,16.241840087890626,-0.3317759335041046,-0.010690134018659592,1.0444260835647583
1711545085831722800,16.26072265625,-0.5101484656333923,0.11942406743764877,0.9314160943031311
1711545085850605300,16.279605224609377,-0.6005564332008362,0.1340848207473755,0.7664825916290283
1711545085869487900,16.29848779296875,-0.6194932460784912,0.06383536756038666,0.5465712547302246
1711545085888370400,16.317370361328123,-0.5913934707641602,-0.010079269297420979,0.2655734717845917
1711545085907253000,16.3362529296875,-0.627434492111206,-0.1182023361325264,-0.11194097250699997
1711545085926135600,16.355135498046874,-0.6543125510215759,-0.007024944759905338,-0.4534143805503845
1711545085945018000,16.37401806640625,-0.5474112033843994,0.0021380267571657896,-0.706923246383667
1711545085963900700,16.392900634765624,-0.3940841555595398,-0.05222893878817558,-0.7564033269882202
1711545085982783200,16.411783203125,-0.260915607213974,-0.04550942778587341,-0.5609265565872192
1711545086001665500,16.43066552734375,-0.14057525992393494,-0.09621120244264603,-0.2542724609375
1711545086020548000,16.449548095703125,-0.06360629200935364,-0.17073670029640198,0.04932733252644539
1711545086039430700,16.4684306640625,-0.04955640435218811,-0.20677772164344788,0.23258677124977112
1711545086058313200,16.487313232421876,-0.0862082913517952,-0.20922118425369263,0.2991710305213928
1711545086077195800,16.50619580078125,-0.18272492289543152,-0.21410810947418213,0.26618432998657227
1711545086096078300,16.525078369140626,-0.3268890082836151,-0.22815799713134766,0.17944152653217316
1711545086114961000,16.5439609375,-0.46799877285957336,-0.2153298407793045,0.08720094710588455
1711545086133843500,16.562843505859377,-0.5174788236618042,-0.24220788478851318,-0.02825249545276165
1711545086152726000,16.58172607421875,-0.5333613157272339,-0.23426663875579834,-0.21090106666088104
1711545086171608600,16.600608642578123,-0.47899433970451355,-0.20250166952610016,-0.28848087787628174
1711545086190491000,16.619490966796874,-0.4704422354698181,-0.48533207178115845,-0.5114465355873108
1711545086209373400,16.63837353515625,-0.49548768997192383,-0.4621191918849945,-0.6293434500694275
1711545086228256000,16.657256103515625,-0.3134499788284302,-0.5164861679077148,-0.5548179149627686
1711545086247138600,16.676138671875,-0.24808746576309204,-0.6814196705818176,-0.4430296719074249
1711545086266021000,16.695021240234375,-0.25786128640174866,-0.850018322467804,-0.3061959743499756
1711545086284903700,16.713903564453126,-0.27924156188964844,-0.9514219164848328,-0.20540328323841095
1711545086303786200,16.7327861328125,-0.24930918216705322,-0.7052434086799622,-0.1302669197320938
1711545086322668800,16.751668701171877,-0.10209077596664429,-0.41874781250953674,0.0639880821108818
1711545086341551400,16.77055126953125,0.1605810821056366,-0.22449280321598053,0.37003132700920105
1711545086360434000,16.789433837890623,0.37927067279815674,-0.18295399844646454,0.5929969549179077
1711545086379316200,16.808316162109374,0.4318050444126129,-0.45539969205856323,0.5276344418525696
1711545086398198800,16.82719873046875,0.36827510595321655,-0.6142245531082153,0.3205513060092926
1711545086417081300,16.846081298828125,0.26626068353652954,-0.5054906010627747,0.23503021895885468
1711545086435964000,16.8649638671875,0.07444914430379868,-0.3790415823459625,0.3150535225868225
1711545086454846500,16.883846435546875,-0.16439898312091827,-0.1701258420944214,0.5612320303916931
1711545086473729000,16.90272900390625,-0.32383468747138977,0.21899501979351044,0.9283617734909058
1711545086492611600,16.921611572265626,-0.31406086683273315,0.39736753702163696,1.1494947671890259
1711545086511494100,16.940494140625,-0.21326816082000732,0.2605338394641876,1.106123447418213
1711545086530376400,16.95937646484375,-0.16623157262802124,-0.01740964688360691,0.8342885971069336
1711545086549259000,16.978259033203123,-0.2047160565853119,-0.2098320573568344,0.3205513060092926
1711545086568141600,16.9971416015625,-0.18516838550567627,-0.06750056147575378,-0.34834563732147217
1711545086587024100,17.016024169921874,0.04390590637922287,0.2605338394641876,-0.8895718455314636
1711545086605906700,17.03490673828125,0.2772562503814697,0.35582873225212097,-1.0728312730789185
1711545086624789200,17.053789306640624,0.3413970470428467,0.19639302790164948,-0.8675807118415833
1711545086643671600,17.072671630859375,0.31268641352653503,0.08643736690282822,-0.36361727118492126
1711545086662554000,17.09155419921875,0.21555891633033752,0.24404047429561615,0.228921577334404
1711545086681436700,17.110436767578125,0.10743584483861923,0.36193737387657166,0.5624537467956543
1711545086700319200,17.1293193359375,0.05673406645655632,0.448069304227829,0.5380191802978516
1711545086719201800,17.148201904296876,0.03107774630188942,0.5189296007156372,0.28328853845596313
1711545086738084400,17.16708447265625,0.06467530876398087,0.5415316224098206,-0.06246092543005943
1711545086756966700,17.185966552734374,0.2277761995792389,0.5390881896018982,-0.3617846667766571
1711545086775849200,17.20484912109375,0.47517645359039307,0.4773908257484436,-0.5212203860282898
1711545086794731800,17.223731689453125,0.6608793139457703,0.3484983444213867,-0.5395463109016418
1711545086813614300,17.2426142578125,0.7189114689826965,0.26908594369888306,-0.40088000893592834
1711545086832497000,17.261496826171875,0.6492729187011719,0.3228420317173004,-0.141262486577034
1711545086851379500,17.28037939453125,0.4745655655860901,0.4120282828807831,0.09147699922323227
1711545086870262000,17.299261962890625,0.3096320927143097,0.38759371638298035,0.1415679156780243
1711545086889144300,17.318144287109376,0.2070067971944809,0.24709481000900269,0.004123337101191282
1711545086908027000,17.33702685546875,0.16791145503520966,0.13164135813713074,-0.19929464161396027
1711545086926909400,17.355909423828123,0.2015090137720108,0.16584978997707367,-0.3318522870540619
1711545086945792000,17.3747919921875,0.33223408460617065,0.40897396206855774,-0.21517711877822876
1711545086964674600,17.393674560546874,0.5533671379089355,0.7137954831123352,0.15317434072494507
1711545086983556900,17.412556884765625,0.705472469329834,0.5745183229446411,0.3400989770889282
1711545087002439400,17.431439453125,0.6792052984237671,-0.05406153202056885,0.16416990756988525
1711545087021322000,17.450322021484375,0.45562875270843506,-0.5659661889076233,-0.15836669504642487
1711545087040204500,17.46920458984375,0.16913318634033203,-0.5720748901367188,-0.38499751687049866
1711545087059087000,17.488087158203125,-0.02084576152265072,-0.1078176349401474,-0.304974228143692
1711545087077969700,17.5069697265625,-0.019013166427612305,0.5842921733856201,0.1464548259973526
1711545087096852000,17.52585205078125,0.13064870238304138,1.0943642854690552,0.6736311316490173
1711545087115734500,17.544734619140623,0.3548360764980316,1.229365348815918,1.014493703842163
1711545087134617000,17.5636171875,0.5032762289047241,1.1523964405059814,1.11345374584198
1711545087153499600,17.582499755859374,0.4580722153186798,0.9190460443496704,0.9442442059516907
1711545087172382200,17.60138232421875,0.3157407343387604,0.600785493850708,0.5123628377914429
1711545087191264800,17.6202646484375,0.26687154173851013,0.3344484567642212,-0.07773254066705704
1711545087210147000,17.63914697265625,0.35300347208976746,0.2788597643375397,-0.6696605086326599
1711545087229029600,17.658029541015626,0.49166980385780334,0.40714138746261597,-1.0581705570220947
1711545087247912200,17.676912109375,0.5820778012275696,0.48594292998313904,-1.1559088230133057
1711545087266794800,17.695794677734376,0.6333904266357422,0.4468475878238678,-0.9995275139808655
1711545087285677300,17.71467724609375,0.6914225816726685,0.3094030022621155,-0.6885973215103149
1711545087304559600,17.7335595703125,0.6810378432273865,0.21899501979351044,-0.29397866129875183
1711545087323442200,17.752442138671874,0.5551997423171997,0.23915356397628784,0.05238165333867073
1711545087342324700,17.77132470703125,0.3560578227043152,0.33628106117248535,0.19654574990272522
1711545087361207300,17.790207275390625,0.1862373948097229,0.4224129915237427,0.17394374310970306
1711545087380089600,17.809089599609376,0.08972076326608658,0.4272999167442322,0.08170316368341446
1711545087398972200,17.82797216796875,0.05734493210911751,0.35094180703163147,-0.049021899700164795
1711545087417854700,17.846854736328126,0.09033162891864777,0.2721402645111084,-0.18829907476902008
1711545087436737300,17.8657373046875,0.20028728246688843,0.21288637816905975,-0.2952004075050354
1711545087455619800,17.884619873046876,0.32795801758766174,0.12492185086011887,-0.35323256254196167
1711545087474502100,17.903502197265624,0.3817141354084015,0.01435532234609127,-0.3404043912887573
1711545087493384700,17.922384765625,0.31207555532455444,-0.01740964688360691,-0.21456626057624817
1711545087512267300,17.941267333984374,0.1599702090024948,-0.006414080038666725,-0.023976443335413933
1711545087531149800,17.96014990234375,0.020693045109510422,-0.11392628401517868,0.019394956529140472
1711545087550032100,17.9790322265625,0.0011453714687377214,-0.2733619809150696,-0.1461493968963623
1711545087568914700,17.997914794921876,0.0988837331533432,-0.33017241954803467,-0.3721693754196167
1711545087587797200,18.01679736328125,0.25587597489356995,-0.34727662801742554,-0.5022835731506348
1711545087606679800,18.0356796875,0.3725511431694031,-0.41874781250953674,-0.40515607595443726
1711545087625562400,18.054562255859373,0.3310123383998871,-0.5384773015975952,-0.13698641955852509
1711545087644444700,18.073444580078124,0.18929173052310944,-0.47494736313819885,0.145843967795372
1711545087663327200,18.0923271484375,0.051847148686647415,-0.282524973154068,0.3223838806152344
1711545087682209800,18.111209716796875,-0.08743002265691757,-0.10476330667734146,0.4243983030319214
1711545087701092400,18.13009228515625,-0.24442227184772491,0.0717766135931015,0.6363683938980103
1711545087719974700,18.148974609375,-0.3519344627857208,0.38698282837867737,0.9625701904296875
1711545087738857200,18.167857177734376,-0.33910632133483887,0.6117810606956482,1.2227985858917236
1711545087757739800,18.18673974609375,-0.2816850244998932,0.49082985520362854,1.2246311902999878
1711545087776622300,18.205622314453127,-0.24625486135482788,0.15790854394435883,0.976620078086853
1711545087795504600,18.224504638671874,-0.26396992802619934,-0.08460476994514465,0.5795579552650452
1711545087814387200,18.24338720703125,-0.3006218373775482,-0.06750056147575378,0.06704241037368774
1711545087833269800,18.262269775390624,-0.16562071442604065,0.1078176349401474,-0.5438223481178284
1711545087852152300,18.28115234375,0.11598794907331467,0.10231985151767731,-1.1290308237075806
1711545087871034600,18.30003466796875,0.24671301245689392,-0.20738859474658966,-1.4356849193572998
1711545087889917200,18.318917236328126,0.09766200929880142,-0.6331613659858704,-1.3098467588424683
1711545087908799700,18.3377998046875,-0.116751529276371,-0.6881392002105713,-0.7698423266410828
1711545087927682300,18.356682373046876,-0.30245441198349,-0.16096286475658417,-0.009315688163042068
1711545087946564600,18.375564697265624,-0.35559967160224915,0.2367101013660431,0.5160280466079712
1711545087965447200,18.394447265625,-0.3061196208000183,0.38881543278694153,0.6155989766120911
1711545087984329700,18.413329833984374,-0.22243113815784454,0.4016436040401459,0.4598284661769867
1711545088003212000,18.4322119140625,-0.11491893976926804,0.36132651567459106,0.2185368686914444
1711545088022094600,18.451094482421876,0.017027854919433594,0.29901832342147827,-0.02153298258781433
1711545088040977200,18.46997705078125,0.13675735890865326,0.14630211889743805,-0.22250749170780182
1711545088059859700,18.488859619140626,0.22899793088436127,0.018631376326084137,-0.31291547417640686
1711545088078742300,18.5077421875,0.27175846695899963,-0.007635809946805239,-0.2683223485946655
1711545088097624600,18.52662451171875,0.21800236403942108,0.07788526266813278,-0.1101083755493164
1711545088116507100,18.545507080078124,0.05673406645655632,0.1328630894422531,0.0847574844956398
1711545088135389700,18.5643896484375,-0.1424078494310379,0.03390299528837204,0.1568395346403122
1711545088154272000,18.58327197265625,-0.25847217440605164,-0.13591741025447845,0.07498364895582199
1711545088173154600,18.602154541015626,-0.2920697331428528,-0.17623448371887207,-0.06490438431501389
1711545088192037000,18.621037109375,-0.2590830326080322,-0.09132428467273712,-0.17974695563316345
1711545088210919400,18.63991943359375,-0.1784488707780838,0.061391908675432205,-0.14309507608413696
1711545088229802000,18.658802001953124,0.015195261687040329,0.30634868144989014,0.12446369975805283
1711545088248684500,18.6776845703125,0.22350014746189117,0.21838416159152985,0.3462076187133789
1711545088267567000,18.696567138671874,0.2680932879447937,-0.37110036611557007,0.2331976294517517
1711545088286449400,18.715449462890625,0.1251509189605713,-0.9648609161376953,-0.09911280870437622
1711545088305332000,18.73433203125,-0.16562071442604065,-1.0864230394363403,-0.39965829253196716
1711545088324214500,18.753214599609375,-0.5107592940330505,-0.7192932963371277,-0.3923279047012329
1711545088343096800,18.772096923828126,-0.7172316312789917,-0.09010255336761475,0.013897174037992954
1711545088361979400,18.7909794921875,-0.6555342674255371,0.47494736313819885,0.6406444311141968
1711545088380862000,18.809862060546877,-0.37636905908584595,0.6282744407653809,1.1549925804138184
1711545088399744500,18.82874462890625,-0.05871937796473503,0.25931209325790405,1.251509189605713
1711545088418626800,18.847626708984375,0.1245400533080101,-0.20738859474658966,0.9411898851394653
1711545088437509400,18.86650927734375,-0.03000873140990734,-0.416304349899292,0.37369653582572937
1711545088456392000,18.885391845703126,-0.42157304286956787,-0.38270679116249084,-0.2890917658805847
1711545088475274200,18.904274169921877,-0.6359865665435791,-0.13164135813713074,-0.7661771774291992
1711545088494156800,18.92315673828125,-0.5303069949150085,0.07422006875276566,-0.9634864926338196
1711545088513039400,18.942039306640623,-0.2645808160305023,0.04734202101826668,-0.8681915402412415
1711545088531921700,18.960921630859374,-0.0397825688123703,-0.10842850059270859,-0.5181660652160645
1711545088550804200,18.97980419921875,0.03657552972435951,-0.21410810947418213,-0.049021899700164795
1711545088569686800,18.998686767578125,-0.028176138177514076,-0.2922987937927246,0.3407098352909088
1711545088588569300,19.0175693359375,-0.18272492289543152,-0.3546070158481598,0.49281516671180725
1711545088607451600,19.03645166015625,-0.41179922223091125,-0.448069304227829,0.43172869086265564
1711545088626334200,19.055334228515626,-0.6646972298622131,-0.5623010396957397,0.21914774179458618
1711545088645216800,19.074216796875,-0.857119619846344,-0.6905826330184937,-0.10399972647428513
1711545088664099000,19.09309912109375,-0.9481384754180908,-0.8579595685005188,-0.42164942622184753
1711545088682981600,19.111981689453124,-0.9322559833526611,-0.9819651246070862,-0.540768027305603
1711545088701864200,19.1308642578125,-0.8717803955078125,-0.9673043489456177,-0.36972591280937195
1711545088720746500,19.14974658203125,-0.8626174330711365,-0.8726203441619873,-0.03558287397027016
1711545088739629000,19.168629150390625,-0.9383646845817566,-0.8927788734436035,0.15317434072494507
1711545088758511600,19.18751171875,-1.0299943685531616,-1.0009019374847412,0.09758564829826355
1711545088777394000,19.206393798828124,-1.119180679321289,-1.0619884729385376,-0.0795651376247406
1711545088796276500,19.2252763671875,-1.1839323043823242,-1.0235038995742798,-0.21517711877822876
1711545088815159000,19.244158935546874,-1.1747692823410034,-0.962417483329773,-0.26648977398872375
1711545088834041300,19.263041259765625,-1.0953569412231445,-0.9819651246070862,-0.2811505198478699
1711545088852924000,19.281923828125,-1.004338026046753,-1.0296125411987305,-0.2585485279560089
1711545088871806500,19.300806396484376,-0.9823469519615173,-1.0454950332641602,-0.17547090351581573
1711545088890688800,19.319688720703127,-1.0379356145858765,-1.0051779747009277,-0.023365577682852745
1711545088909571300,19.3385712890625,-1.127732753753662,-0.9856303334236145,0.14462223649024963
1711545088928454000,19.357453857421874,-1.2382992506027222,-0.9782999157905579,0.24724751710891724
1711545088947336200,19.376336181640625,-1.3280963897705078,-0.9734130501747131,0.25702136754989624
1711545088966218800,19.39521875,-1.3946806192398071,-0.99968022108078,0.20143266022205353
1711545088985101300,19.414101318359375,-1.4258347749710083,-1.0699297189712524,0.12140937149524689
1711545089003983600,19.432983642578126,-1.423391342163086,-1.1493420600891113,0.034666575491428375
1711545089022866200,19.4518662109375,-1.4288890361785889,-1.1426225900650024,-0.06734783947467804
1711545089041748700,19.470748779296876,-1.4331650733947754,-1.2134828567504883,-0.2487746775150299
1711545089060631000,19.489631103515624,-1.339702844619751,-1.2617411613464355,-0.45097091794013977
1711545089079513600,19.508513671875,-1.0806961059570312,-1.0485494136810303,-0.46196648478507996
1711545089098396200,19.527396240234374,-0.7856484651565552,-0.6276635527610779,-0.16386447846889496
1711545089117278500,19.546278564453125,-0.6989056468009949,-0.3808741867542267,0.2032652497291565
1711545089136161000,19.5651611328125,-0.7893136739730835,-0.38881543278694153,0.4341721534729004
1711545089155043300,19.584043212890624,-0.9334777593612671,-0.43340855836868286,0.5380191802978516
1711545089173926000,19.60292578125,-1.045266032218933,-0.47983428835868835,0.5300779342651367
1711545089192808400,19.621808349609374,-1.0525963306427002,-0.5360338687896729,0.44577857851982117
1711545089211690800,19.640690673828125,-0.987844705581665,-0.6209440231323242,0.31871870160102844
1711545089230573300,19.6595732421875,-0.876667320728302,-0.7730493545532227,0.11713331937789917
1711545089249455900,19.678455810546875,-0.7502183318138123,-0.9208786487579346,-0.11316270381212234
1711545089268338200,19.697338134765626,-0.7215076684951782,-0.9984585046768188,-0.2854265570640564
1711545089287220700,19.716220703125,-0.7685442566871643,-0.9923498630523682,-0.33857181668281555
1711545089306103300,19.735103271484373,-0.8094722032546997,-0.9245438575744629,-0.2860374450683594
1711545089324985600,19.753985595703124,-0.8070287108421326,-0.8097012639045715,-0.12110394239425659
1711545089343868200,19.7728681640625,-0.7306706309318542,-0.7137954831123352,0.1104138121008873
1711545089362750500,19.79175048828125,-0.6390409469604492,-0.630107045173645,0.28817546367645264
1711545089381633000,19.810633056640626,-0.5590176582336426,-0.5525271892547607,0.33276858925819397
1711545089400515600,19.829515625,-0.44234246015548706,-0.4456258714199066,0.2747364342212677
1711545089419398000,19.84839794921875,-0.3183369040489197,-0.3546070158481598,0.20204351842403412
1711545089438280400,19.867280517578124,-0.23709189891815186,-0.3387245237827301,0.14523309469223022
1711545089457163000,19.8861630859375,-0.17050762474536896,-0.3338375985622406,0.11896591633558273
1711545089476045300,19.90504541015625,-0.13935352861881256,-0.35766133666038513,0.11835505068302155
1711545089494928000,19.923927978515625,-0.17661628127098083,-0.45478883385658264,0.0951421856880188
1711545089513810400,19.942810546875,-0.2816850244998932,-0.602007269859314,0.009621120058000088
1711545089532692700,19.961692626953123,-0.4050796926021576,-0.6178897023200989,-0.04780016839504242
1711545089551575300,19.9805751953125,-0.47838348150253296,-0.46456265449523926,0.01511890348047018
1711545089570457600,19.99945751953125,-0.49365508556365967,-0.30451610684394836,0.14767655730247498
1711545089589340200,20.018340087890625,-0.48937904834747314,-0.30573782324790955,0.23014330863952637
1711545089608222700,20.03722265625,-0.4967094361782074,-0.40897396206855774,0.2490801066160202
1711545089627105000,20.05610498046875,-0.5168679356575012,-0.49082985520362854,0.2185368686914444
1711545089645987600,20.074987548828126,-0.5168679356575012,-0.5140427350997925,0.11224640160799026
1711545089664870000,20.093869873046874,-0.48937904834747314,-0.4841103255748749,-0.039248060435056686
1711545089683752400,20.11275244140625,-0.42340564727783203,-0.4407389461994171,-0.14248420298099518
1711545089702635000,20.131635009765624,-0.3171151876449585,-0.41263917088508606,-0.15531237423419952
1711545089721517300,20.150517333984375,-0.15890119969844818,-0.4004218578338623,-0.12721258401870728
1711545089740399900,20.16939990234375,0.042684175074100494,-0.32650721073150635,-0.0539088174700737
1711545089759282200,20.1882822265625,0.1911243200302124,-0.2049451321363449,0.04505127668380737
1711545089778164700,20.207164794921876,0.22350014746189117,-0.10537417232990265,0.14278964698314667
1711545089797047300,20.22604736328125,0.1703549176454544,-0.08399390429258347,0.1922696828842163
1711545089815929600,20.2449296875,0.08055779337882996,-0.0925460159778595,0.21426081657409668
1711545089834812200,20.263812255859374,-0.021456625312566757,-0.07910698652267456,0.2331976294517517
1711545089853694500,20.282694580078125,-0.11308634281158447,-0.05711585655808449,0.19410228729248047
1711545089872577000,20.301576904296876,-0.20288346707820892,-0.1230892539024353,0.05299251899123192
1711545089891459600,20.32045947265625,-0.2951240539550781,-0.23548837006092072,-0.10583232343196869
1711545089910342000,20.339341796875,-0.34521496295928955,-0.26480987668037415,-0.14309507608413696
1711545089929224400,20.358224365234374,-0.32566729187965393,-0.19333870708942413,-0.05329795181751251
1711545089948107000,20.37710693359375,-0.23648102581501007,-0.12370011955499649,0.016340631991624832
1711545089966989300,20.3959892578125,-0.0910952091217041,-0.07544180005788803,0.010842849500477314
1711545089985872000,20.414871826171876,0.06223184987902641,-0.04673115536570549,-0.0539088174700737
1711545090004754200,20.433754150390627,0.19234605133533478,-0.025961752980947495,-0.11377356201410294
1711545090023636700,20.45263671875,0.2723693251609802,-0.0009162971982732415,-0.10155627131462097
1711545090042519300,20.471519287109373,0.2998582422733307,0.04306596517562866,-0.028863361105322838
1711545090061401600,20.490401611328124,0.2998582422733307,0.09804379940032959,0.053603384643793106
1711545090080284200,20.5092841796875,0.28092142939567566,0.16035200655460358,0.09880737960338593
1711545090099166500,20.52816650390625,0.25465425848960876,0.17745621502399445,0.08109229803085327
1711545090118049000,20.547049072265626,0.2173915058374405,0.15790854394435883,0.025503603741526604
1711545090136931300,20.565931396484373,0.1703549176454544,0.1444695144891739,-0.008093958720564842
1711545090155814000,20.58481396484375,0.13797907531261444,0.16523891687393188,-0.009926552884280682
1711545090174696200,20.6036962890625,0.12881611287593842,0.15302163362503052,-0.027030766010284424
1711545090193578800,20.622578857421875,0.12026400119066238,0.11392628401517868,-0.06795870512723923
1711545090212461300,20.64146142578125,0.0884990319609642,0.0870482325553894,-0.09850194305181503
1711545090231343600,20.660343505859377,0.05062541738152504,0.08643736690282822,-0.09117157012224197
1711545090250226200,20.67922607421875,0.02802342176437378,0.0974329337477684,-0.058795735239982605
1711545090269108500,20.6981083984375,0.018860450014472008,0.10170898586511612,-0.03252854943275452
1711545090287991000,20.716990966796875,0.011530072428286076,0.09376774728298187,-0.02764163166284561
1711545090306873600,20.73587353515625,0.010919207707047462,0.09560033679008484,-0.02825249545276165
1711545090325756000,20.754755859375,0.02496909722685814,0.08338304609060287,-0.04169152304530144
1711545090344638500,20.773638427734376,0.05306887626647949,0.07605266571044922,-0.06123919412493706
1711545090363520800,20.792520751953123,0.07200568914413452,0.06627883017063141,-0.07223475724458694
1711545090382403300,20.8114033203125,0.06711876392364502,0.07971785217523575,-0.0539088174700737
1711545090401285600,20.83028564453125,0.05062541738152504,0.08277218043804169,-0.0025961752980947495
1711545090420168200,20.849168212890625,0.012140937149524689,0.08765909820795059,0.037720900028944016
1711545090439050800,20.86805078125,-0.02328922040760517,0.0717766135931015,0.031612250953912735
1711545090457933000,20.88693310546875,-0.041615162044763565,0.05833758786320686,0.010842849500477314
1711545090476815600,20.905815673828126,-0.0654388889670372,0.04428769648075104,-0.009315688163042068
1711545090495698000,20.924697998046874,-0.09048434346914291,0.035124726593494415,-0.012370011769235134
1711545090514580500,20.94358056640625,-0.09903645515441895,-0.003970621153712273,-0.03497200831770897
1711545090533462800,20.962462890625,-0.10453423857688904,-0.03451386094093323,-0.07773254066705704
1711545090552345300,20.981345458984375,-0.1320231556892395,-0.04978547990322113,-0.10949750989675522
1711545090571227600,21.0002275390625,-0.16989676654338837,-0.041844237595796585,-0.12232567369937897
1711545090590110200,21.019110107421874,-0.19738568365573883,-0.05711585655808449,-0.11743875592947006
1711545090608992800,21.03799267578125,-0.16989676654338837,-0.11331541836261749,-0.09666935354471207
1711545090627875000,21.056875,-0.106366828083992,-0.1438586562871933,-0.05696314200758934
1711545090646757600,21.075757568359375,-0.06360629200935364,-0.12247838824987411,-0.05513054504990578
1711545090665640000,21.094639892578126,-0.047723811119794846,-0.07360920310020447,-0.07712167501449585
1711545090684522500,21.1135224609375,-0.05994110554456711,-0.04245510324835777,-0.10277800261974335
1711545090703404800,21.13240478515625,-0.07643445581197739,-0.05589412897825241,-0.1156061589717865
1711545090722287400,21.151287353515624,-0.09170607477426529,-0.08888082206249237,-0.1253799945116043
1711545090741169700,21.170169677734375,-0.10453423857688904,-0.09926552325487137,-0.14737112820148468
1711545090760052200,21.18905224609375,-0.11430807411670685,-0.10109812021255493,-0.191964253783226
1711545090778934500,21.2079345703125,-0.116751529276371,-0.08949168771505356,-0.233503058552742
1711545090797817000,21.226817138671876,-0.12591449916362762,-0.10476330667734146,-0.24266603589057922
1711545090816699600,21.24569970703125,-0.1265253722667694,-0.15485422313213348,-0.21639885008335114
1711545090835582000,21.26458203125,-0.12469277530908585,-0.19272783398628235,-0.17119485139846802
1711545090854464500,21.283464599609374,-0.11858412623405457,-0.21838416159152985,-0.14370593428611755
1711545090873346800,21.302346923828125,-0.11247547715902328,-0.2110537886619568,-0.12476912885904312
1711545090892229400,21.3212294921875,-0.12530364096164703,-0.24953825771808624,-0.12476912885904312
1711545090911111700,21.340111572265624,-0.14607304334640503,-0.3442223072052002,-0.16264274716377258
1711545090929994200,21.358994140625,-0.1369100660085678,-0.4272999167442322,-0.19135339558124542
1711545090948876500,21.37787646484375,-0.11064288020133972,-0.4517345130443573,-0.18890993297100067
1711545090967759000,21.396759033203125,-0.10819942504167557,-0.4712821841239929,-0.20418155193328857
1711545090986641400,21.415641357421876,-0.13813179731369019,-0.5354229807853699,-0.304974228143692
1711545091005524000,21.43452392578125,-0.21265730261802673,-0.6068941354751587,-0.46257734298706055
1711545091024406300,21.45340625,-0.3421606421470642,-0.5836812853813171,-0.5212203860282898
1711545091043288800,21.472288818359374,-0.49548768997192383,-0.47067132592201233,-0.4277580678462982
1711545091062171100,21.491171142578125,-0.588949978351593,-0.36193737387657166,-0.24572035670280457
1711545091081053700,21.5100537109375,-0.6011673212051392,-0.314289927482605,-0.07101303339004517
1711545091099936000,21.52893603515625,-0.5547415614128113,-0.2965748608112335,0.04199695214629173
1711545091118818600,21.547818603515626,-0.4930442273616791,-0.24526220560073853,0.09819651395082474
1711545091137701000,21.566701171875,-0.4704422354698181,-0.2055560052394867,0.09636391699314117
1711545091156583400,21.58558349609375,-0.5034289360046387,-0.2153298407793045,0.07315105944871902
1711545091175465700,21.6044658203125,-0.5651262998580933,-0.24404047429561615,0.08536835014820099
1711545091194348300,21.623348388671875,-0.6139954328536987,-0.2715294063091278,0.12385283410549164
1711545091213230800,21.64223095703125,-0.6237692832946777,-0.281914085149765,0.16539163887500763
1711545091232113200,21.661113037109374,-0.6139954328536987,-0.2861901521682739,0.16783510148525238
1711545091250995700,21.67999560546875,-0.6109411120414734,-0.2929096519947052,0.125074565410614
1711545091269878000,21.6988779296875,-0.6353757381439209,-0.29413139820098877,0.10674861818552017
1711545091288760600,21.717760498046875,-0.701349139213562,-0.3326158821582794,0.10858121514320374
1711545091307643000,21.736642822265626,-0.783815860748291,-0.3955349326133728,0.11591159552335739
1711545091326525400,21.755525390625,-0.8473458290100098,-0.448069304227829,0.11957678198814392
1711545091345407700,21.77440771484375,-0.857119619846344,-0.5134318470954895,0.06887500733137131
1711545091364290300,21.793290283203124,-0.8302416205406189,-0.5794052481651306,-0.017867794260382652
1711545091383172600,21.812172607421875,-0.8693369626998901,-0.6447677612304688,-0.09605848789215088
1711545091402055200,21.83105517578125,-0.960355818271637,-0.7113520503044128,-0.10338886082172394
1711545091420937500,21.8499375,-1.0196096897125244,-0.7388409376144409,0.015729768201708794
1711545091439820000,21.868820068359376,-1.0764200687408447,-0.7748819589614868,0.1562286615371704
1711545091458702300,21.887702392578124,-1.170493245124817,-0.8768963813781738,0.16478078067302704
1711545091477585000,21.9065849609375,-1.2859467267990112,-0.9917389750480652,0.043829549103975296
1711545091496467200,21.92546728515625,-1.3781872987747192,-0.9728021621704102,-0.08384118974208832
1711545091515349800,21.944349853515625,-1.3885719776153564,-0.8359684348106384,-0.07284562289714813
1711545091534232000,21.963232177734376,-1.34947669506073,-0.7614429593086243,0.05299251899123192
1711545091553114600,21.982114501953124,-1.2816706895828247,-0.8671225309371948,0.1415679156780243
1711545091571997000,22.000996826171875,-1.164995551109314,-1.043662428855896,0.0591011680662632
1711545091590879500,22.01987939453125,-1.0458768606185913,-1.1194096803665161,-0.13698641955852509
1711545091609761800,22.03876171875,-1.0220531225204468,-1.0821470022201538,-0.304974228143692
1711545091628644400,22.057644287109376,-1.0874156951904297,-0.9581413865089417,-0.34406960010528564
1711545091647526700,22.076526611328124,-1.2309688329696655,-0.8213077187538147,-0.2542724609375
1711545091666409200,22.0954091796875,-1.3965132236480713,-0.7498365044593811,-0.13454297184944153
1711545091685291500,22.11429150390625,-1.4484367370605469,-0.68386310338974,-0.07162389904260635
1711545091704174000,22.133174072265625,-1.3696352243423462,-0.4920515716075897,0.02672533318400383
1711545091723056400,22.152056396484376,-1.2285254001617432,-0.24709481000900269,0.21426081657409668
1711545091741938700,22.170938720703123,-1.081307053565979,-0.14263692498207092,0.38591381907463074
1711545091760821200,22.1898212890625,-0.9939533472061157,-0.19150610268115997,0.45066550374031067
1711545091779703800,22.208703857421874,-1.0208313465118408,-0.33505934476852417,0.35537058115005493
1711545091798586000,22.227586181640625,-1.1423934698104858,-0.4535670876502991,0.14767655730247498
1711545091817468700,22.24646875,-1.295109748840332,-0.5195404887199402,-0.09422589093446732
1711545091836351000,22.26535107421875,-1.4081196784973145,-0.630107045173645,-0.3575085997581482
1711545091855233300,22.2842333984375,-1.3787981271743774,-0.7302888631820679,-0.5749764442443848
1711545091874115800,22.30311572265625,-1.2370775938034058,-0.7632755637168884,-0.6947059631347656
1711545091892998100,22.321998046875,-1.062981128692627,-0.732121467590332,-0.7087558507919312
1711545091911880700,22.340880615234376,-0.8925498127937317,-0.702799916267395,-0.6482802629470825
1711545091930763000,22.359762939453127,-0.7575486898422241,-0.7296779751777649,-0.5719221234321594
1711545091949645600,22.3786455078125,-0.6701950430870056,-0.7370083332061768,-0.47296205163002014
1711545091968528000,22.39752783203125,-0.6524799466133118,-0.6539307236671448,-0.3220784664154053
1711545091987410400,22.416410400390625,-0.6646972298622131,-0.4981602132320404,-0.1302669197320938
1711545092006292700,22.435292724609376,-0.673249363899231,-0.3594939112663269,0.06276635825634003
1711545092025175300,22.45417529296875,-0.6872992515563965,-0.3179551064968109,0.23564109206199646
1711545092044057600,22.4730576171875,-0.6848557591438293,-0.34605491161346436,0.3559814393520355
1711545092062940200,22.491940185546873,-0.6701950430870056,-0.435241162776947,0.3767508566379547
1711545092081822500,22.510822509765624,-0.6897426843643188,-0.5781835317611694,0.28267768025398254
1711545092100705000,22.529705078125,-0.7190641760826111,-0.6911935210227966,0.06826414167881012
1711545092119587300,22.54858740234375,-0.6982948184013367,-0.7473930716514587,-0.22006404399871826
1711545092138469600,22.5674697265625,-0.589560866355896,-0.7235693335533142,-0.4143190383911133
1711545092157352200,22.586352294921873,-0.4344012141227722,-0.6814196705818176,-0.4033234715461731
1711545092176234500,22.605234375,-0.28901541233062744,-0.609948456287384,-0.16325360536575317
1711545092195117000,22.624116943359375,-0.23831361532211304,-0.6765327453613281,0.031001387163996696
1711545092213999400,22.642999267578126,-0.22670719027519226,-0.8090903759002686,0.034666575491428375
1711545092232882000,22.6618818359375,-0.229150652885437,-0.757777750492096,0.024281874299049377
1711545092251764200,22.68076416015625,-0.31528258323669434,-0.5714640021324158,0.08842267841100693
1711545092270646800,22.699646728515624,-0.43684467673301697,-0.3704894781112671,0.2606865465641022
1711545092289529000,22.718529052734375,-0.5119810700416565,-0.08888082206249237,0.5899426341056824
1711545092308411400,22.737411376953126,-0.49487683176994324,0.17256930470466614,0.928972601890564
1711545092327294000,22.7562939453125,-0.4087449014186859,0.2513708472251892,1.11345374584198
1711545092346176300,22.77517626953125,-0.32016950845718384,0.11453714966773987,1.0499238967895508
1711545092365058800,22.794058837890624,-0.2719111740589142,-0.04673115536570549,0.7774781584739685
1711545092383941000,22.812941162109375,-0.2774089574813843,-0.02779434807598591,0.40973755717277527
1711545092402823700,22.83182373046875,-0.27374377846717834,0.16096286475658417,-0.020922118797898293
1711545092421706000,22.8507060546875,-0.1839466542005539,0.19272783398628235,-0.5627591609954834
1711545092440588500,22.869588623046877,-0.1369100660085678,-0.11331541836261749,-1.0453423261642456
1711545092459470800,22.888470947265624,-0.2248746007680893,-0.49144071340560913,-1.1785109043121338
1711545092478353400,22.907353515625,-0.3733147382736206,-0.7040216326713562,-0.9103412628173828
1711545092497235700,22.926235595703126,-0.4802160859107971,-0.5568032264709473,-0.35506516695022583
1711545092516118000,22.945117919921874,-0.4918225109577179,-0.11759147047996521,0.20937390625476837
