time,seconds_elapsed,z,y,x
1711545069717934300,0.146934326171875,7.435696601867676,6.4085774421691895,0.20907287299633026
1711545069736816600,0.165816650390625,7.4261250495910645,6.442076683044434,0.26889345049858093
1711545069755699200,0.18469921875,7.509873867034912,6.5042901039123535,0.30239295959472656
1711545069774581500,0.20358154296875,7.540980339050293,6.442076683044434,0.3981058597564697
1711545069793463800,0.2224638671875,7.440482139587402,6.379863262176514,0.4627120792865753
1711545069812346000,0.24134619140625,7.385447025299072,6.341578006744385,0.3454637825489044
1711545069831228400,0.260228515625,7.366304397583008,6.372684955596924,0.21385852992534637
1711545069850111000,0.279111083984375,7.332805156707764,6.379863262176514,0.16360925137996674
1711545069868993300,0.2979931640625,7.438089370727539,6.336792469024658,0.1301097273826599
1711545069887875600,0.31687548828125,7.430910587310791,6.262615203857422,0.07028916478157043
1711545069906758000,0.3357578125,7.459624767303467,6.320042610168457,0.06550352275371552
1711545069925640400,0.354640380859375,7.471588611602783,6.3152570724487305,0.19232311844825745
1711545069944522800,0.373522705078125,7.47637414932251,6.310471534729004,0.19950158894062042
1711545069963405000,0.392405029296875,7.555337429046631,6.341578006744385,0.19232311844825745
1711545069982287400,0.411287353515625,7.629515171051025,6.348756790161133,0.24496522545814514
1711545070001169700,0.430169677734375,7.392625331878662,6.394220352172852,0.3047857880592346
1711545070020052200,0.44905224609375,7.203592777252197,6.499504566192627,0.18753747642040253
1711545070038934500,0.4679345703125,7.2059855461120605,6.50189733505249,0.1301097273826599
1711545070057816800,0.48681689453125,7.517052173614502,6.449255466461182,0.3047857880592346
1711545070076699100,0.50569921875,7.732406139373779,6.391827583312988,0.44356951117515564
1711545070095581700,0.524581787109375,7.536194801330566,6.3702921867370605,0.4244269132614136
1711545070114464000,0.543464111328125,7.430910587310791,6.353542327880859,0.40767714381217957
1711545070133346300,0.56234619140625,7.11984395980835,6.4564337730407715,0.30957141518592834
1711545070152228600,0.581228515625,6.882954120635986,6.717251300811768,0.34307095408439636
1711545070171111000,0.60011083984375,6.985845565795898,6.738786697387695,0.39092740416526794
1711545070189993500,0.618993408203125,7.004988193511963,6.719644069671631,0.4100699722766876
1711545070208875800,0.637875732421875,7.256234645843506,6.62632417678833,0.26171496510505676
1711545070227758000,0.656758056640625,7.253841876983643,6.427719593048096,0.03439682722091675
1711545070246640400,0.675640380859375,7.170093059539795,6.293721675872803,-0.023030918091535568
1711545070265523000,0.69452294921875,7.294519901275635,6.245865345001221,0.05593222752213478
1711545070284405200,0.7134052734375,7.883154392242432,6.0711894035339355,0.28564319014549255
1711545070303287600,0.73228759765625,8.184649467468262,5.968297958374023,0.4746761918067932
1711545070322169900,0.751169921875,7.859225749969482,6.085546016693115,0.1947159469127655
1711545070341052400,0.770052490234375,7.789834022521973,6.140581130981445,-0.030209386721253395
1711545070359934700,0.788934814453125,7.744370460510254,6.22193717956543,-0.013459627516567707
1711545070378817000,0.807817138671875,7.782655715942383,6.114260196685791,-0.09960123896598816
1711545070397699600,0.826699462890625,7.533802032470703,6.269793510437012,0.11096715182065964
1711545070416582000,0.845581787109375,7.406982421875,6.468397617340088,0.3574278950691223
1711545070435464200,0.864464111328125,7.383054256439209,6.353542327880859,0.24496522545814514
1711545070454346500,0.883346435546875,7.402196884155273,6.0879387855529785,-0.0972084179520607
1711545070473229000,0.90222900390625,7.517052173614502,6.0879387855529785,-0.17617157101631165
1711545070492111400,0.921111328125,7.679764270782471,6.22193717956543,0.0894317477941513
1711545070510993700,0.93999365234375,7.550551891326904,6.164509296417236,-0.023030918091535568
1711545070529876000,0.9588759765625,7.564908981323242,5.9922261238098145,-0.3939184248447418
1711545070548758500,0.977758544921875,7.665407180786133,5.927619934082031,-0.508773922920227
1711545070567640800,0.996640869140625,7.868797302246094,5.977869033813477,-0.5446662306785583
1711545070586523100,1.015523193359375,7.921439170837402,6.03529691696167,-0.3484548032283783
1711545070605405700,1.03440576171875,7.682157039642334,6.178866386413574,-0.4585246443748474
1711545070624288000,1.0532880859375,7.7563347816467285,6.02811861038208,-0.8102695941925049
1711545070643170300,1.07217041015625,7.442874908447266,5.846263885498047,-0.3819543123245239
1711545070662052900,1.091052978515625,7.7491559982299805,6.0711894035339355,-0.506381094455719
1711545070680935200,1.10993505859375,7.744370460510254,5.98026180267334,-0.661914587020874
1711545070699817500,1.1288173828125,7.775477409362793,5.891727447509766,-0.7935197949409485
1711545070718699800,1.14769970703125,7.239484786987305,6.111867427825928,-0.6020939946174622
1711545070737582300,1.166582275390625,7.375875949859619,6.15972375869751,-0.37956148386001587
1711545070756464600,1.185464599609375,7.679764270782471,6.059225082397461,-0.489631325006485
1711545070775347000,1.204346923828125,7.820940971374512,5.958726406097412,-0.6355935335159302
1711545070794229500,1.2232294921875,7.797012805938721,5.91087007522583,-0.7001997232437134
1711545070813111800,1.24211181640625,7.514659404754639,6.001797199249268,-0.47527438402175903
1711545070831994000,1.260994140625,7.237092018127441,6.0472612380981445,-0.46331027150154114
1711545070850876700,1.279876708984375,7.708477973937988,5.872584819793701,-0.659521758556366
1711545070869759000,1.298759033203125,8.132007598876953,5.877370834350586,-0.6212365627288818
1711545070888641300,1.317641357421875,8.172685623168945,5.9060845375061035,-0.7863413691520691
1711545070907523800,1.33652392578125,7.887939929962158,5.781657695770264,-0.5829514265060425
1711545070926406100,1.35540625,8.100900650024414,5.791228771209717,-0.7719843983650208
1711545070945288400,1.374288330078125,8.139185905456543,5.738586902618408,-0.8509475588798523
1711545070964171000,1.3931708984375,7.904689788818359,5.752943992614746,-0.8174480199813843
1711545070983053300,1.41205322265625,7.801798343658447,5.870192050933838,-1.0447661876678467
1711545071001935600,1.430935546875,7.4811601638793945,5.72422981262207,-0.8030911087989807
1711545071020818200,1.449818115234375,7.574480056762695,5.657230854034424,-1.3606188297271729
1711545071039700500,1.468700439453125,7.512266635894775,5.731408596038818,-1.0447661876678467
1711545071058582800,1.487582763671875,7.797012805938721,5.705087184906006,-0.9466604590415955
1711545071077465300,1.50646533203125,7.883154392242432,5.664409637451172,-0.9729815125465393
1711545071096347600,1.52534765625,8.079365730285645,5.6309099197387695,-1.051944613456726
1711545071115230000,1.54422998046875,8.201399803161621,5.647659778594971,-0.9323035478591919
1711545071134112500,1.563112548828125,8.182256698608398,5.650052547454834,-0.8318049907684326
1711545071152994800,1.581994873046875,8.031509399414062,5.726622581481934,-0.9586246013641357
1711545071171877000,1.600877197265625,8.002795219421387,5.595017433166504,-1.1069796085357666
1711545071190759700,1.619759765625,7.727620601654053,5.791228771209717,-0.8605188727378845
1711545071209642000,1.63864208984375,7.658228874206543,5.767300605773926,-0.8653044700622559
1711545071228524300,1.657524169921875,7.739584922790527,5.7409796714782715,-0.8892326951026917
1711545071247406800,1.67640673828125,7.902296543121338,5.681159019470215,-0.8150551915168762
1711545071266289200,1.6952890625,7.770691394805908,5.695516109466553,-0.7624131441116333
1711545071285171700,1.714171630859375,7.741977691650391,6.0711894035339355,-0.5111667513847351
1711545071304054000,1.733053955078125,7.612765312194824,5.987440586090088,-0.5183451771736145
1711545071322936300,1.751936279296875,7.342376232147217,5.712265968322754,-0.8748757839202881
1711545071341819000,1.77081884765625,7.148557662963867,5.56869649887085,-0.992124080657959
1711545071360701200,1.789701171875,6.729813575744629,5.386841773986816,-0.9969097375869751
1711545071379583700,1.808583740234375,7.694121360778809,5.231308460235596,-1.3654043674468994
1711545071398466000,1.827466064453125,8.878568649291992,5.420341491699219,-0.6738786697387695
1711545071417348400,1.846348388671875,9.31884765625,5.673980712890625,0.3693920075893402
1711545071436231000,1.86523095703125,8.711071014404297,5.999404430389404,0.8694919347763062
1711545071455113200,1.88411328125,7.988438606262207,6.305685997009277,1.0345966815948486
1711545071473995800,1.902995849609375,7.464410305023193,6.63350248336792,1.0441679954528809
1711545071492878000,1.921878173828125,7.459624767303467,6.698108673095703,0.7953144311904907
1711545071511760400,1.940760498046875,7.533802032470703,6.422934055328369,0.6230311989784241
1711545071530643000,1.959642822265625,7.775477409362793,6.190830230712891,0.4004986882209778
1711545071549525200,1.978525146484375,7.995616912841797,6.0879387855529785,0.37896329164505005
1711545071568407800,1.99740771484375,7.897511005401611,6.020939826965332,0.6326025128364563
1711545071587290000,2.0162900390625,7.5433735847473145,6.15254545211792,0.9915258884429932
1711545071606172400,2.03517236328125,7.550551891326904,6.308078765869141,1.2475578784942627
1711545071625055000,2.054054931640625,7.768298625946045,6.451648235321045,1.4054841995239258
1711545071643937300,2.072937255859375,7.765905857086182,6.549753665924072,1.5275181531906128
1711545071662819800,2.09181982421875,7.485945701599121,6.4803619384765625,1.3959128856658936
1711545071681702100,2.1107021484375,7.055237770080566,6.511468410491943,0.9053842425346375
1711545071700584400,2.12958447265625,6.617351055145264,6.535397052764893,0.5488536953926086
1711545071719467000,2.148467041015625,6.248856544494629,6.657430648803711,0.529711127281189
1711545071738349300,2.167349365234375,6.33499813079834,6.726822853088379,0.6780661344528198
1711545071757231900,2.18623193359375,6.835097789764404,6.7316083908081055,0.7809575200080872
1711545071776114200,2.2051142578125,7.395018577575684,6.738786697387695,0.9819545745849609
1711545071794996500,2.22399658203125,8.019545555114746,6.607181549072266,1.1805589199066162
1711545071813879000,2.242879150390625,7.971688747406006,6.4947190284729,1.3049856424331665
1711545071832761300,2.26176123046875,7.395018577575684,6.518647193908691,1.1901301145553589
1711545071851644000,2.280643798828125,6.961917400360107,6.681358814239502,0.8240283131599426
1711545071870526200,2.299526123046875,6.74656343460083,6.710072994232178,0.6469594240188599
1711545071889408800,2.31840869140625,6.638886451721191,6.68853759765625,0.7019943594932556
1711545071908291000,2.337291015625,6.73938512802124,6.640681266784668,0.8216354846954346
1711545071927173400,2.35617333984375,6.985845565795898,6.662216663360596,0.9388837814331055
1711545071946056000,2.375055908203125,6.985845565795898,6.662216663360596,0.9149555563926697
1711545071964938200,2.393938232421875,6.949953556060791,6.700501441955566,0.8288139700889587
1711545071983820800,2.41282080078125,6.945167541503906,6.772286415100098,0.7498508095741272
1711545072002703000,2.431703125,6.909275531768799,6.829713821411133,0.7833502888679504
1711545072021585700,2.450585693359375,7.143772125244141,6.753143787384033,0.8742775917053223
1711545072040468000,2.469468017578125,7.320840835571289,6.693323135375977,0.92691969871521
1711545072059350300,2.488350341796875,7.4261250495910645,6.662216663360596,1.0058828592300415
1711545072078232800,2.50723291015625,7.244270324707031,6.664609432220459,1.0154540538787842
1711545072097115400,2.526115478515625,6.914061069488525,6.722036838531494,0.8359923958778381
1711545072115997700,2.544997802734375,6.935596466064453,6.745965003967285,0.6804589629173279
1711545072134880000,2.5638798828125,6.725028038024902,6.712465763092041,0.481854647397995
1711545072153762600,2.582762451171875,6.885347366333008,6.68853759765625,0.4292125701904297
1711545072172644900,2.601644775390625,5.866004943847656,7.052246570587158,0.4794618487358093
1711545072191527400,2.62052734375,6.990631580352783,7.090531826019287,0.2832503914833069
1711545072210409700,2.63940966796875,7.617550849914551,6.796214580535889,0.6852445602416992
1711545072229292300,2.658292236328125,6.937989234924316,6.142973899841309,0.45553362369537354
1711545072248174600,2.677174560546875,6.758527755737305,6.037689685821533,-0.2958126962184906
1711545072267057200,2.69605712890625,8.036294937133789,6.293721675872803,-0.4585246443748474
1711545072285939500,2.714939453125,8.153543472290039,6.305685997009277,0.5225326418876648
1711545072304822000,2.733822021484375,7.643871784210205,6.296114444732666,0.9412766098976135
1711545072323704300,2.752704345703125,7.253841876983643,6.523432731628418,0.7163512706756592
1711545072342587000,2.7715869140625,7.58644437789917,6.609574317932129,0.3454637825489044
1711545072361469200,2.79046923828125,7.887939929962158,6.50907564163208,0.3406781256198883
1711545072380351700,2.809351806640625,7.787441253662109,6.367899417877197,0.5081757307052612
1711545072399234000,2.828234130859375,7.658228874206543,6.355935096740723,0.29760730266571045
1711545072418116600,2.84711669921875,7.241877555847168,6.475576400756836,0.28085756301879883
1711545072436999000,2.8659990234375,7.304090976715088,6.602396011352539,0.34307095408439636
1711545072455881200,2.884881103515625,7.744370460510254,6.585646152496338,0.4411766827106476
1711545072474763800,2.903763671875,7.682157039642334,6.463612079620361,0.5009972453117371
1711545072493646300,2.922646240234375,7.3304123878479,6.451648235321045,0.42681974172592163
1711545072512528600,2.941528564453125,7.141379356384277,6.50907564163208,0.3478565812110901
1711545072531411200,2.9604111328125,6.9930243492126465,6.511468410491943,0.31435707211494446
1711545072550293500,2.97929345703125,6.832705020904541,6.44686222076416,0.2593221664428711
1711545072569176000,2.998176025390625,6.758527755737305,6.477969169616699,0.23778675496578217
1711545072588058400,3.017058349609375,6.849454879760742,6.492326259613037,0.1779661774635315
1711545072606941000,3.03594091796875,6.964310169219971,6.583253383636475,0.24496522545814514
1711545072625823200,3.0548232421875,7.404589653015137,6.62632417678833,0.3406781256198883
1711545072644705800,3.073705810546875,7.8664045333862305,6.549753665924072,0.4292125701904297
1711545072663588000,3.092588134765625,7.737192153930664,6.489933013916016,0.40767714381217957
1711545072682470700,3.111470703125,7.677371501922607,6.477969169616699,0.20428723096847534
1711545072701353000,3.13035302734375,7.239484786987305,6.422934055328369,0.23778675496578217
1711545072720235500,3.149235595703125,7.115057945251465,6.473183631896973,0.2234298139810562
1711545072739117800,3.168117919921875,7.131807804107666,6.576074600219727,0.3239283561706543
1711545072758000400,3.18700048828125,7.146164894104004,6.623931407928467,0.26889345049858093
1711545072776882700,3.205882568359375,7.27537727355957,6.566503524780273,0.21625134348869324
1711545072795765200,3.22476513671875,7.430910587310791,6.4803619384765625,0.18035900592803955
1711545072814647600,3.2436474609375,7.4500532150268555,6.360720634460449,0.22821545600891113
1711545072833530000,3.262530029296875,7.313662528991699,6.332006931304932,0.17557336390018463
1711545072852412400,3.281412353515625,7.079165935516357,6.3391852378845215,0.0008973084622994065
1711545072871295000,3.300294921875,7.004988193511963,6.444469451904297,0.010468599386513233
1711545072890177300,3.31917724609375,7.1820573806762695,6.44686222076416,-0.0014955141814425588
1711545072909059800,3.338059814453125,7.430910587310791,6.4085774421691895,0.0487537607550621
1711545072927942100,3.356942138671875,7.4811601638793945,6.506682872772217,0.06550352275371552
1711545072946824700,3.37582470703125,7.347161769866943,6.592824459075928,0.09182456880807877
1711545072965707300,3.394707275390625,7.490731239318848,6.6693949699401855,0.1013958603143692
1711545072984589600,3.413589599609375,7.588837146759033,6.640681266784668,0.1372881978750229
1711545073003472100,3.43247216796875,7.536194801330566,6.5712890625,0.10618150234222412
1711545073022354400,3.4513544921875,7.490731239318848,6.410970211029053,0.012861421331763268
1711545073041237000,3.470237060546875,7.299305438995361,6.365506649017334,-0.06849455088376999
1711545073060119300,3.489119384765625,7.411767959594727,6.37747049331665,-0.1378864049911499
1711545073079001900,3.508001953125,7.179664134979248,6.401398658752441,-0.07328019291162491
1711545073097884400,3.526884521484375,6.87099027633667,6.470790863037109,-0.09481559693813324
1711545073116766700,3.5457666015625,6.897311210632324,6.523432731628418,-0.15224334597587585
1711545073135649300,3.564649169921875,6.9236321449279785,6.468397617340088,-0.13070793449878693
1711545073154531600,3.583531494140625,7.138986587524414,6.444469451904297,-0.0445663221180439
1711545073173414100,3.6024140625,7.395018577575684,6.516254425048828,-0.06610172241926193
1711545073192296400,3.62129638671875,7.59362268447876,6.391827583312988,-0.1618146300315857
1711545073211179000,3.640178955078125,7.643871784210205,6.38464879989624,-0.1618146300315857
1711545073230061300,3.659061279296875,7.438089370727539,6.451648235321045,0.03918246924877167
1711545073248943900,3.67794384765625,7.519444942474365,6.5042901039123535,0.1133599728345871
1711545073267826400,3.696826416015625,7.421339511871338,6.461219310760498,0.012861421331763268
1711545073286708700,3.715708740234375,7.1988067626953125,6.4803619384765625,-0.034995030611753464
1711545073305591300,3.73459130859375,7.241877555847168,6.506682872772217,-0.0014955141814425588
1711545073324473600,3.7534736328125,7.459624767303467,6.585646152496338,0.08225327730178833
1711545073343356200,3.772356201171875,7.708477973937988,6.50907564163208,0.024825535714626312
1711545073362238700,3.79123876953125,7.832904815673828,6.128616809844971,-0.22163519263267517
1711545073381121000,3.81012109375,7.28255558013916,6.276971817016602,-0.18813568353652954
1711545073400003600,3.829003662109375,6.8279194831848145,6.5282182693481445,-0.6068796515464783
1711545073418886000,3.847885986328125,6.74656343460083,6.674180507659912,-0.21206390857696533
1711545073437768400,3.8667685546875,6.198606967926025,6.425326824188232,0.09900303930044174
1711545073456650800,3.885650634765625,6.430710792541504,6.320042610168457,-0.3484548032283783
1711545073475533300,3.904533203125,6.959524631500244,6.422934055328369,-0.5685944557189941
1711545073494416000,3.923415771484375,8.304290771484375,6.477969169616699,-0.3723830282688141
1711545073513298200,3.942298095703125,8.476573944091797,6.3152570724487305,0.3119642436504364
1711545073532180700,3.9611806640625,8.213363647460938,6.324828624725342,0.8838488459587097
1711545073551063000,3.98006298828125,7.533802032470703,6.449255466461182,0.89581298828125
1711545073569945600,3.998945556640625,7.227520942687988,6.657430648803711,0.4124628007411957
1711545073588828200,4.017828125,7.328019142150879,6.662216663360596,0.020039889961481094
1711545073607710500,4.03671044921875,7.4739813804626465,6.50189733505249,-0.0062811593525111675
1711545073626593000,4.055593017578125,7.641479015350342,6.382256031036377,0.16839489340782166
1711545073645475600,4.0744755859375,7.641479015350342,6.3631134033203125,0.32632118463516235
1711545073664358000,4.09335791015625,7.5433735847473145,6.28415060043335,0.26171496510505676
1711545073683240400,4.112240478515625,7.306483745574951,6.214758396148682,0.046360939741134644
1711545073702123000,4.131123046875,7.1748785972595215,6.320042610168457,-0.12352947145700455
1711545073721005300,4.15000537109375,7.024130821228027,6.410970211029053,-0.05174478888511658
1711545073739887900,4.168887939453125,7.129415035247803,6.4325056076049805,0.0032901312224566936
1711545073758770200,4.187770263671875,7.15812873840332,6.396613121032715,0.14925231039524078
1711545073777652700,4.20665283203125,7.201199531555176,6.379863262176514,0.21385852992534637
1711545073796535300,4.225535400390625,7.395018577575684,6.365506649017334,0.27846473455429077
1711545073815417600,4.24441748046875,7.402196884155273,6.468397617340088,0.4339981973171234
1711545073834300200,4.263300048828125,7.406982421875,6.576074600219727,0.4579264223575592
1711545073853182700,4.2821826171875,7.2227349281311035,6.600003242492676,0.41485562920570374
1711545073872065000,4.30106494140625,7.27537727355957,6.600003242492676,0.35503506660461426
1711545073890947600,4.319947509765625,7.3304123878479,6.56411075592041,0.4124628007411957
1711545073909830100,4.338830078125,7.320840835571289,6.55693244934082,0.4507479667663574
1711545073928712400,4.35771240234375,7.270591735839844,6.518647193908691,0.3717848062515259
1711545073947595000,4.376594970703125,7.2921271324157715,6.530611038208008,0.3047857880592346
1711545073966477300,4.395477294921875,7.323233604431152,6.533003807067871,0.24975086748600006
1711545073985360000,4.41435986328125,7.402196884155273,6.43968391418457,0.2952145040035248
1711545074004242400,4.433242431640625,7.3399834632873535,6.334399700164795,0.24975086748600006
1711545074023125000,4.452125,7.287341594696045,6.3224358558654785,0.1899302899837494
1711545074042007300,4.47100732421875,7.304090976715088,6.4803619384765625,0.18035900592803955
1711545074060889900,4.489889892578125,7.172485828399658,6.580860614776611,0.21146570146083832
1711545074079772200,4.508772216796875,7.261020183563232,6.559325218200684,0.2641077935695648
1711545074098654700,4.52765478515625,7.2921271324157715,6.487540245056152,0.3239283561706543
1711545074117537300,4.546537353515625,7.53140926361084,6.523432731628418,0.36699917912483215
1711545074136419800,4.565419921875,7.643871784210205,6.525825500488281,0.5225326418876648
1711545074155302100,4.58430224609375,7.581658363342285,6.592824459075928,0.6062814593315125
1711545074174184700,4.603184814453125,7.354340553283691,6.6143598556518555,0.6062814593315125
1711545074193067300,4.6220673828125,7.122236728668213,6.592824459075928,0.5009972453117371
1711545074211949600,4.640949462890625,7.071987152099609,6.521039962768555,0.3358924686908722
1711545074230832000,4.65983203125,6.976274490356445,6.55693244934082,0.3885345757007599
1711545074249714700,4.678714599609375,7.086344242095947,6.566503524780273,0.3693920075893402
1711545074268597000,4.697596923828125,7.261020183563232,6.516254425048828,0.3885345757007599
1711545074287479600,4.7164794921875,7.34476900100708,6.518647193908691,0.4124628007411957
1711545074306362000,4.735362060546875,7.3160552978515625,6.492326259613037,0.36221352219581604
1711545074325244400,4.754244384765625,7.227520942687988,6.468397617340088,0.3406781256198883
1711545074344127000,4.773126953125,7.280162811279297,6.549753665924072,0.2832503914833069
1711545074363009500,4.792009521484375,7.404589653015137,6.583253383636475,0.2593221664428711
1711545074381891800,4.810891845703125,7.447660446166992,6.482754707336426,0.3837489187717438
1711545074400774400,4.8297744140625,7.4500532150268555,6.477969169616699,0.4531407952308655
1711545074419657000,4.848656982421875,7.359126091003418,6.5521464347839355,0.43639102578163147
1711545074438539500,4.86753955078125,7.265805721282959,6.583253383636475,0.3981058597564697
1711545074457421800,4.886421875,7.189235687255859,6.585646152496338,0.3981058597564697
1711545074476304400,4.905304443359375,7.1509504318237305,6.600003242492676,0.4627120792865753
1711545074495187000,4.92418701171875,7.021738052368164,6.647859573364258,0.5033900737762451
1711545074514069200,4.9430693359375,6.794419765472412,6.710072994232178,0.5177469849586487
1711545074532951800,4.961951904296875,6.952346324920654,6.741179466247559,0.5464608669281006
1711545074551834400,4.98083447265625,7.179664134979248,6.6454668045043945,0.4938187599182129
1711545074570717000,4.999717041015625,7.371089935302734,6.513861656188965,0.3837489187717438
1711545074589599200,5.01859912109375,7.404589653015137,6.463612079620361,0.37417763471603394
1711545074608481800,5.037481689453125,7.328019142150879,6.547360897064209,0.37417763471603394
1711545074627364400,5.0563642578125,7.349554538726807,6.5712890625,0.359820693731308
1711545074646247000,5.075246826171875,7.258627414703369,6.573681831359863,0.35503506660461426
1711545074665129200,5.094129150390625,7.304090976715088,6.535397052764893,0.32153555750846863
1711545074684011800,5.11301171875,7.428517818450928,6.5521464347839355,0.33828529715538025
1711545074702894300,5.131894287109375,7.342376232147217,6.547360897064209,0.33828529715538025
1711545074721777000,5.15077685546875,7.122236728668213,6.55693244934082,0.3478565812110901
1711545074740659200,5.1696591796875,6.9068827629089355,6.623931407928467,0.4387838542461395
1711545074759541800,5.188541748046875,7.000202655792236,6.635895252227783,0.46749773621559143
1711545074778424300,5.20742431640625,7.21316385269165,6.611967086791992,0.5057829022407532
1711545074797306600,5.226306640625,7.375875949859619,6.566503524780273,0.5033900737762451
1711545074816189200,5.245189208984375,7.375875949859619,6.597609996795654,0.5009972453117371
1711545074835071700,5.26407177734375,7.265805721282959,6.597609996795654,0.4339981973171234
1711545074853954300,5.282954345703125,7.237092018127441,6.561717987060547,0.3646063506603241
1711545074872836900,5.3018369140625,7.1748785972595215,6.533003807067871,0.32153555750846863
1711545074891719200,5.32071923828125,7.225128173828125,6.542575359344482,0.3454637825489044
1711545074910601700,5.339601806640625,7.34476900100708,6.607181549072266,0.4339981973171234
1711545074929484300,5.358484375,7.323233604431152,6.609574317932129,0.498604416847229
1711545074948366800,5.377366943359375,7.320840835571289,6.559325218200684,0.3837489187717438
1711545074967249200,5.396249267578125,7.131807804107666,6.585646152496338,0.393320232629776
1711545074986131700,5.415131591796875,7.098308563232422,6.61914587020874,0.3885345757007599
1711545075005014300,5.43401416015625,7.076773166656494,6.568896293640137,0.38614174723625183
1711545075023896800,5.452896728515625,7.083951473236084,6.588038921356201,0.41964125633239746
1711545075042779400,5.471779296875,7.165307521820068,6.63350248336792,0.4698905348777771
1711545075061661700,5.49066162109375,7.28255558013916,6.602396011352539,0.4339981973171234
1711545075080544300,5.509544189453125,7.313662528991699,6.576074600219727,0.39571303129196167
1711545075099426800,5.5284267578125,7.289734363555908,6.535397052764893,0.41485562920570374
1711545075118309400,5.547309326171875,7.201199531555176,6.602396011352539,0.46031925082206726
1711545075137191700,5.566191650390625,7.191628456115723,6.657430648803711,0.4698905348777771
1711545075156074200,5.58507421875,7.325626373291016,6.611967086791992,0.4172484576702118
1711545075174956800,5.603956787109375,7.349554538726807,6.56411075592041,0.4459623098373413
1711545075193839400,5.62283935546875,7.366304397583008,6.595217227935791,0.37417763471603394
1711545075212722000,5.641721923828125,7.237092018127441,6.640681266784668,0.4507479667663574
1711545075231604500,5.6606044921875,7.1988067626953125,6.640681266784668,0.4579264223575592
1711545075250486800,5.67948681640625,7.0648088455200195,6.595217227935791,0.4579264223575592
1711545075269369300,5.698369384765625,7.062416076660156,6.554539203643799,0.33110684156417847
1711545075288252000,5.717251953125,7.069594383239746,6.580860614776611,0.34307095408439636
1711545075307134500,5.736134521484375,7.165307521820068,6.659823417663574,0.47228336334228516
1711545075326017000,5.75501708984375,7.241877555847168,6.700501441955566,0.529711127281189
1711545075344899600,5.773899658203125,7.225128173828125,6.671787738800049,0.4507479667663574
1711545075363782000,5.792781982421875,7.148557662963867,6.650252342224121,0.3717848062515259
1711545075382664400,5.81166455078125,7.1270222663879395,6.7076802253723145,0.38614174723625183
1711545075401547000,5.830547119140625,7.368697166442871,6.628716945648193,0.41485562920570374
1711545075420429600,5.8494296875,7.239484786987305,6.604788780212402,0.48903313279151917
1711545075439312100,5.86831201171875,7.186842918395996,6.640681266784668,0.4507479667663574
1711545075458194700,5.887194580078125,7.0648088455200195,6.640681266784668,0.481854647397995
1711545075477077000,5.906076904296875,6.961917400360107,6.600003242492676,0.5129613280296326
1711545075495959600,5.92495947265625,6.937989234924316,6.580860614776611,0.3981058597564697
1711545075514842000,5.943842041015625,7.050451755523682,6.652645111083984,0.35024940967559814
1711545075533724700,5.962724609375,7.105486869812012,6.681358814239502,0.40767714381217957
1711545075552607200,5.981607177734375,7.277770042419434,6.655037879943848,0.4052843451499939
1711545075571489800,6.00048974609375,7.4261250495910645,6.576074600219727,0.4172484576702118
1711545075590372000,6.0193720703125,7.430910587310791,6.542575359344482,0.40767714381217957
1711545075609254700,6.038254638671875,7.27537727355957,6.578467845916748,0.40289151668548584
1711545075628137200,6.05713720703125,7.210771083831787,6.604788780212402,0.3478565812110901
1711545075647019800,6.076019775390625,7.143772125244141,6.5521464347839355,0.3478565812110901
1711545075665902300,6.09490234375,7.196413993835449,6.5904316902160645,0.359820693731308
1711545075684785000,6.113784912109375,7.196413993835449,6.640681266784668,0.45553362369537354
1711545075703667200,6.132667236328125,7.194021224975586,6.693323135375977,0.5512465238571167
1711545075722549800,6.1515498046875,7.11984395980835,6.700501441955566,0.5512465238571167
1711545075741432300,6.170432373046875,7.055237770080566,6.6454668045043945,0.41964125633239746
1711545075760315000,6.18931494140625,7.055237770080566,6.573681831359863,0.393320232629776
1711545075779197400,6.208197509765625,7.201199531555176,6.604788780212402,0.42681974172592163
1711545075798080000,6.227080078125,7.246663570404053,6.667002201080322,0.529711127281189
1711545075816962600,6.245962646484375,7.208378314971924,6.657430648803711,0.5153541564941406
1711545075835845000,6.26484521484375,7.244270324707031,6.623931407928467,0.41964125633239746
1711545075854727700,6.283727783203125,7.378268718719482,6.554539203643799,0.3334996700286865
1711545075873610000,6.30260986328125,7.359126091003418,6.533003807067871,0.4387838542461395
1711545075892492500,6.321492431640625,7.189235687255859,6.640681266784668,0.4914259612560272
1711545075911375000,6.340375,7.071987152099609,6.712465763092041,0.4507479667663574
1711545075930257700,6.359257568359375,7.122236728668213,6.63350248336792,0.3837489187717438
1711545075949140200,6.37814013671875,7.284948348999023,6.5282182693481445,0.3646063506603241
1711545075968022800,6.397022705078125,7.3878397941589355,6.521039962768555,0.39092740416526794
1711545075986905300,6.4159052734375,7.172485828399658,6.576074600219727,0.4651049077510834
1711545076005788000,6.434787841796875,7.043273448944092,6.652645111083984,0.4172484576702118
1711545076024670500,6.45367041015625,7.004988193511963,6.652645111083984,0.40289151668548584
1711545076043552800,6.472552734375,7.134200572967529,6.674180507659912,0.43160539865493774
1711545076062435300,6.491435302734375,7.378268718719482,6.640681266784668,0.5273182988166809
1711545076081318000,6.51031787109375,7.447660446166992,6.62632417678833,0.6254240274429321
1711545076100200400,6.529200439453125,7.442874908447266,6.655037879943848,0.5943173170089722
1711545076119083000,6.5480830078125,7.253841876983643,6.576074600219727,0.532103955745697
1711545076137965600,6.566965576171875,7.069594383239746,6.5712890625,0.42681974172592163
1711545076156848000,6.58584814453125,7.031309127807617,6.616752624511719,0.3574278950691223
1711545076175730700,6.604730712890625,7.093522548675537,6.63350248336792,0.39092740416526794
1711545076194613200,6.62361328125,7.143772125244141,6.635895252227783,0.498604416847229
1711545076213495800,6.642495849609375,7.1820573806762695,6.683752059936523,0.5129613280296326
1711545076232378400,6.66137841796875,7.208378314971924,6.643074035644531,0.4172484576702118
1711545076251261000,6.680260986328125,7.189235687255859,6.576074600219727,0.39092740416526794
1711545076270143500,6.6991435546875,7.22034215927124,6.566503524780273,0.42681974172592163
1711545076289026000,6.718026123046875,7.304090976715088,6.592824459075928,0.40289151668548584
1711545076307908600,6.73690869140625,7.225128173828125,6.63350248336792,0.4794618487358093
1711545076326791200,6.755791259765625,7.141379356384277,6.678966045379639,0.481854647397995
1711545076345673700,6.774673828125,7.098308563232422,6.678966045379639,0.5392823815345764
1711545076364556300,6.793556396484375,7.079165935516357,6.6693949699401855,0.5105685591697693
1711545076383438800,6.81243896484375,7.124629497528076,6.664609432220459,0.4220340847969055
1711545076402321400,6.8313212890625,7.184450149536133,6.640681266784668,0.5009972453117371
1711545076421203700,6.85020361328125,7.186842918395996,6.712465763092041,0.5416752099990845
1711545076440086300,6.869086181640625,7.22034215927124,6.719644069671631,0.4698905348777771
1711545076458968800,6.88796875,7.239484786987305,6.623931407928467,0.5105685591697693
1711545076477851400,6.906851318359375,7.280162811279297,6.600003242492676,0.48424747586250305
1711545076496734000,6.92573388671875,7.167700290679932,6.600003242492676,0.40767714381217957
1711545076515616500,6.944616455078125,7.071987152099609,6.6143598556518555,0.35024940967559814
1711545076534499000,6.9634990234375,7.083951473236084,6.652645111083984,0.37896329164505005
1711545076553381600,6.982381591796875,7.083951473236084,6.611967086791992,0.4339981973171234
1711545076572264200,7.00126416015625,7.1509504318237305,6.595217227935791,0.4627120792865753
1711545076591146800,7.020146728515625,7.107879638671875,6.657430648803711,0.4746761918067932
1711545076610029300,7.039029296875,7.134200572967529,6.7555365562438965,0.44356951117515564
1711545076628911900,7.057911865234375,7.074379920959473,6.769893646240234,0.5033900737762451
1711545076647794400,7.07679443359375,7.036095142364502,6.712465763092041,0.498604416847229
1711545076666677000,7.095677001953125,7.232306480407715,6.664609432220459,0.4339981973171234
1711545076685559600,7.1145595703125,7.301698207855225,6.652645111083984,0.5225326418876648
1711545076704442000,7.133442138671875,7.361518859863281,6.693323135375977,0.5464608669281006
1711545076723324700,7.15232470703125,7.241877555847168,6.69571590423584,0.5105685591697693
1711545076742207200,7.171207275390625,7.122236728668213,6.640681266784668,0.40767714381217957
1711545076761089800,7.19008984375,7.115057945251465,6.583253383636475,0.30957141518592834
1711545076779972400,7.208972412109375,6.937989234924316,6.588038921356201,0.30239295959472656
1711545076798855000,7.22785498046875,6.813562393188477,6.655037879943848,0.38614174723625183
1711545076817737500,7.246737548828125,7.052844524383545,6.781857490539551,0.4100699722766876
1711545076836620000,7.2656201171875,7.194021224975586,6.760322093963623,0.5392823815345764
1711545076855502600,7.284502685546875,7.1820573806762695,6.7076802253723145,0.6278168559074402
1711545076874385200,7.30338525390625,7.1820573806762695,6.722036838531494,0.5033900737762451
1711545076893267700,7.322267822265625,7.036095142364502,6.719644069671631,0.49621158838272095
1711545076912150300,7.341150390625,7.028916358947754,6.738786697387695,0.47706902027130127
1711545076931032800,7.36003271484375,7.112665176391602,6.712465763092041,0.4507479667663574
1711545076949915400,7.378915283203125,7.217949390411377,6.698108673095703,0.40767714381217957
1711545076968798200,7.397798095703125,7.280162811279297,6.63350248336792,0.3358924686908722
1711545076987680800,7.4166806640625,7.320840835571289,6.631109714508057,0.36221352219581604
1711545077006563300,7.435563232421875,7.284948348999023,6.643074035644531,0.4339981973171234
1711545077025446000,7.45444580078125,7.048058986663818,6.659823417663574,0.4651049077510834
1711545077044328400,7.473328369140625,6.952346324920654,6.68853759765625,0.4531407952308655
1711545077063211000,7.4922109375,7.0097737312316895,6.686144828796387,0.4531407952308655
1711545077082093600,7.511093505859375,7.083951473236084,6.667002201080322,0.44356951117515564
1711545077100976000,7.52997607421875,7.055237770080566,6.722036838531494,0.5129613280296326
1711545077119858700,7.548858642578125,7.11984395980835,6.791429042816162,0.5608177781105042
1711545077138741200,7.5677412109375,7.141379356384277,6.719644069671631,0.5464608669281006
1711545077157623800,7.586623779296875,7.217949390411377,6.63350248336792,0.4220340847969055
1711545077176506400,7.60550634765625,7.155735969543457,6.6215386390686035,0.3287140130996704
1711545077195389000,7.624388916015625,7.1509504318237305,6.6454668045043945,0.3574278950691223
1711545077214271500,7.643271484375,7.196413993835449,6.70289421081543,0.4627120792865753
1711545077233154000,7.662154052734375,7.249056339263916,6.722036838531494,0.42681974172592163
1711545077252036600,7.68103662109375,7.143772125244141,6.683752059936523,0.39092740416526794
1711545077270919400,7.69991943359375,7.062416076660156,6.674180507659912,0.3167499005794525
1711545077289801700,7.7188017578125,6.971488952636719,6.683752059936523,0.3287140130996704
1711545077308684500,7.7376845703125,7.024130821228027,6.681358814239502,0.38614174723625183
1711545077327567000,7.756567138671875,7.194021224975586,6.662216663360596,0.4531407952308655
1711545077346449700,7.77544970703125,7.141379356384277,6.655037879943848,0.5273182988166809
1711545077365332200,7.794332275390625,7.069594383239746,6.69571590423584,0.5344967842102051
1711545077384214800,7.81321484375,6.80877685546875,6.7555365562438965,0.589531660079956
1711545077403097300,7.832097412109375,6.820741176605225,6.7794647216796875,0.4627120792865753
1711545077421980000,7.85097998046875,7.060023307800293,6.68853759765625,0.34307095408439636
1711545077440862500,7.869862548828125,7.244270324707031,6.6215386390686035,0.37417763471603394
1711545077459745000,7.8887451171875,7.445267677307129,6.676573276519775,0.4292125701904297
1711545077478627800,7.9076279296875,7.41416072845459,6.724429607391357,0.5799604058265686
1711545077497510400,7.926510498046875,7.244270324707031,6.741179466247559,0.5991029739379883
1711545077516393000,7.94539306640625,6.981060028076172,6.75075101852417,0.5440680384635925
1711545077535275500,7.964275634765625,6.86381196975708,6.777071952819824,0.4052843451499939
1711545077554158000,7.983157958984375,6.954739093780518,6.7316083908081055,0.3526422381401062
1711545077573040600,8.00204052734375,7.086344242095947,6.643074035644531,0.393320232629776
1711545077591923200,8.020923095703125,7.167700290679932,6.678966045379639,0.5177469849586487
1711545077610805800,8.0398056640625,7.191628456115723,6.722036838531494,0.48903313279151917
1711545077629688600,8.0586884765625,7.172485828399658,6.647859573364258,0.3885345757007599
1711545077648571100,8.077571044921875,7.167700290679932,6.600003242492676,0.33110684156417847
1711545077667453700,8.09645361328125,7.15812873840332,6.561717987060547,0.29042884707450867
1711545077686336300,8.115336181640625,7.170093059539795,6.578467845916748,0.34307095408439636
1711545077705218800,8.13421875,7.186842918395996,6.676573276519775,0.4579264223575592
1711545077724101400,8.153101318359376,7.1748785972595215,6.741179466247559,0.532103955745697
1711545077742984000,8.17198388671875,7.136593341827393,6.743572235107422,0.6302096843719482
1711545077761866500,8.190866455078124,7.21316385269165,6.741179466247559,0.6038886308670044
1711545077780749300,8.209749267578125,7.239484786987305,6.719644069671631,0.5799604058265686
1711545077799632000,8.2286318359375,7.076773166656494,6.674180507659912,0.5033900737762451
1711545077818514400,8.247514404296876,6.961917400360107,6.70289421081543,0.4172484576702118
1711545077837397000,8.26639697265625,7.014559745788574,6.68853759765625,0.48424747586250305
1711545077856279600,8.285279541015624,7.253841876983643,6.6215386390686035,0.47228336334228516
1711545077875162000,8.304162109375,7.272984504699707,6.6454668045043945,0.5273182988166809
1711545077894044700,8.323044677734375,7.241877555847168,6.70289421081543,0.5129613280296326
1711545077912927500,8.341927490234376,7.071987152099609,6.678966045379639,0.46031925082206726
1711545077931810000,8.36081005859375,6.978667259216309,6.678966045379639,0.40289151668548584
1711545077950692600,8.379692626953124,6.997809886932373,6.693323135375977,0.44835513830184937
1711545077969575200,8.3985751953125,7.194021224975586,6.676573276519775,0.5201398134231567
1711545077988457700,8.417457763671875,7.194021224975586,6.643074035644531,0.5703890919685364
1711545078007340300,8.43634033203125,7.177271366119385,6.647859573364258,0.5225326418876648
1711545078026223000,8.45522314453125,7.186842918395996,6.69571590423584,0.5129613280296326
1711545078045105700,8.474105712890625,7.177271366119385,6.683752059936523,0.5344967842102051
1711545078063988200,8.49298828125,7.069594383239746,6.6693949699401855,0.5105685591697693
1711545078082870800,8.511870849609375,7.136593341827393,6.652645111083984,0.3813561201095581
1711545078101753300,8.53075341796875,7.1748785972595215,6.588038921356201,0.43639102578163147
1711545078120636000,8.549635986328125,7.170093059539795,6.63350248336792,0.4938187599182129
1711545078139518700,8.568518798828125,7.0887370109558105,6.698108673095703,0.5512465238571167
1711545078158401300,8.5874013671875,7.103094100952148,6.655037879943848,0.5560321807861328
1711545078177283800,8.606283935546875,7.112665176391602,6.604788780212402,0.49621158838272095
1711545078196166400,8.62516650390625,7.136593341827393,6.568896293640137,0.44835513830184937
1711545078215049200,8.64404931640625,7.081558704376221,6.588038921356201,0.5416752099990845
1711545078233931800,8.662931884765625,7.134200572967529,6.674180507659912,0.6086742877960205
1711545078252814300,8.681814453125,7.201199531555176,6.667002201080322,0.6278168559074402
1711545078271697000,8.70069677734375,7.272984504699707,6.597609996795654,0.6086742877960205
1711545078290579500,8.719579345703124,7.3160552978515625,6.559325218200684,0.5751747488975525
1711545078309462300,8.738462158203125,7.289734363555908,6.592824459075928,0.5943173170089722
1711545078328344800,8.7573447265625,7.21316385269165,6.616752624511719,0.6302096843719482
1711545078347227400,8.776227294921876,7.028916358947754,6.609574317932129,0.651745080947876
1711545078366110000,8.79510986328125,6.945167541503906,6.652645111083984,0.6900302171707153
1711545078384992500,8.813992431640624,6.99541711807251,6.710072994232178,0.6565307378768921
1711545078403875300,8.832875244140626,7.1748785972595215,6.710072994232178,0.5823532342910767
1711545078422758000,8.8517578125,7.411767959594727,6.671787738800049,0.6780661344528198
1711545078441640400,8.870640380859374,7.521838188171387,6.690930366516113,0.7929216027259827
1711545078460523000,8.88952294921875,7.485945701599121,6.693323135375977,0.7259225845336914
1711545078479405600,8.908405517578124,7.234699249267578,6.604788780212402,0.6565307378768921
1711545078498288400,8.927288330078126,6.976274490356445,6.588038921356201,0.5273182988166809
1711545078517171000,8.9461708984375,6.849454879760742,6.580860614776611,0.5081757307052612
1711545078536053500,8.965053466796874,6.873383045196533,6.592824459075928,0.5943173170089722
1711545078554936000,8.98393603515625,7.0959153175354,6.611967086791992,0.5105685591697693
1711545078573819000,9.00281884765625,7.263412952423096,6.540182590484619,0.4292125701904297
1711545078592701400,9.021701416015626,7.28255558013916,6.530611038208008,0.4387838542461395
1711545078611584000,9.040583984375,7.210771083831787,6.561717987060547,0.4244269132614136
1711545078630466600,9.059466552734374,7.210771083831787,6.5904316902160645,0.46031925082206726
1711545078649349400,9.078349365234375,7.186842918395996,6.643074035644531,0.6349952816963196
1711545078668232000,9.09723193359375,7.2227349281311035,6.734001159667969,0.7283154129981995
1711545078687114500,9.116114501953126,7.280162811279297,6.741179466247559,0.7043871879577637
1711545078705997000,9.1349970703125,7.3639116287231445,6.635895252227783,0.6158527135848999
1711545078724879600,9.153879638671874,7.323233604431152,6.611967086791992,0.6038886308670044
1711545078743762400,9.172762451171875,7.165307521820068,6.693323135375977,0.6373881101608276
1711545078762645000,9.19164501953125,6.918846607208252,6.743572235107422,0.6349952816963196
1711545078781527600,9.210527587890626,6.890132904052734,6.726822853088379,0.5751747488975525
1711545078800410000,9.22941015625,7.014559745788574,6.664609432220459,0.5249254703521729
1711545078819293000,9.24829296875,7.177271366119385,6.6215386390686035,0.5344967842102051
1711545078838175500,9.267175537109376,7.203592777252197,6.607181549072266,0.481854647397995
1711545078857058000,9.28605810546875,7.124629497528076,6.6693949699401855,0.46031925082206726
1711545078875940600,9.304940673828124,6.983452796936035,6.6693949699401855,0.4459623098373413
1711545078894823400,9.323823486328125,7.105486869812012,6.604788780212402,0.4531407952308655
1711545078913706000,9.3427060546875,7.155735969543457,6.554539203643799,0.4579264223575592
1711545078932588500,9.361588623046876,7.028916358947754,6.554539203643799,0.4292125701904297
1711545078951471000,9.38047119140625,7.031309127807617,6.609574317932129,0.4052843451499939
1711545078970354000,9.39935400390625,7.083951473236084,6.611967086791992,0.4459623098373413
1711545078989236500,9.418236572265625,7.2059855461120605,6.602396011352539,0.4794618487358093
1711545079008119000,9.437119140625,7.186842918395996,6.56411075592041,0.5967101454734802
1711545079027001900,9.456001953125,7.258627414703369,6.585646152496338,0.5919244885444641
1711545079045884400,9.474884521484375,7.296912670135498,6.576074600219727,0.6158527135848999
1711545079064767000,9.49376708984375,7.215556621551514,6.6215386390686035,0.7115656137466431
1711545079083649500,9.5126494140625,7.332805156707764,6.724429607391357,0.740279495716095
1711545079102532400,9.531532470703125,7.428517818450928,6.678966045379639,0.8120641708374023
1711545079121415000,9.550414794921876,7.433303356170654,6.580860614776611,0.8216354846954346
1711545079140297500,9.56929736328125,7.311269760131836,6.542575359344482,0.7283154129981995
1711545079159180000,9.588179931640624,7.15812873840332,6.542575359344482,0.6349952816963196
1711545079178062800,9.607062744140626,6.988238334655762,6.554539203643799,0.620638370513916
1711545079196945400,9.6259453125,7.081558704376221,6.506682872772217,0.6230311989784241
1711545079215828000,9.644827880859374,7.229913711547852,6.482754707336426,0.740279495716095
1711545079234710800,9.663710693359375,7.435696601867676,6.544968128204346,0.773779034614563
1711545079253593300,9.68259326171875,7.41416072845459,6.578467845916748,0.8527421951293945
1711545079272476000,9.701475830078126,7.3304123878479,6.578467845916748,0.6924230456352234
1711545079291358500,9.7203583984375,7.007380962371826,6.722036838531494,0.7881359457969666
1711545079310241300,9.7392412109375,7.131807804107666,6.671787738800049,0.6302096843719482
1711545079329123800,9.758123779296875,7.277770042419434,6.602396011352539,0.7187440991401672
1711545079348006400,9.77700634765625,7.5433735847473145,6.6454668045043945,0.8790631890296936
1711545079366889200,9.79588916015625,7.4811601638793945,6.609574317932129,0.8599206209182739
1711545079385771800,9.814771728515625,7.385447025299072,6.595217227935791,0.7307082414627075
1711545079404654300,9.833654296875,7.397411346435547,6.583253383636475,0.7163512706756592
1711545079423537000,9.852536865234375,7.299305438995361,6.542575359344482,0.831206738948822
1711545079442419700,9.871419677734375,7.024130821228027,6.588038921356201,0.7666005492210388
1711545079461302300,9.89030224609375,6.830312252044678,6.700501441955566,0.6684948205947876
1711545079480184800,9.909184814453125,6.7178497314453125,6.676573276519775,0.7115656137466431
1711545079499067600,9.928067626953125,6.859025955200195,6.705287456512451,0.831206738948822
1711545079517950200,9.9469501953125,7.021738052368164,6.712465763092041,0.8742775917053223
1711545079536832800,9.965832763671875,7.0959153175354,6.678966045379639,0.8742775917053223
1711545079555715300,9.98471533203125,7.143772125244141,6.671787738800049,0.7594220638275146
1711545079574598100,10.00359814453125,7.112665176391602,6.600003242492676,0.6828517913818359
1711545079593480700,10.022480712890625,7.091129779815674,6.63350248336792,0.6948158740997314
1711545079612363300,10.04136328125,7.0887370109558105,6.674180507659912,0.6637091636657715
1711545079631246000,10.06024609375,7.074379920959473,6.6454668045043945,0.7259225845336914
1711545079650128600,10.079128662109374,7.155735969543457,6.710072994232178,0.7139584422111511
1711545079669011200,10.09801123046875,7.241877555847168,6.7555365562438965,0.7666005492210388
1711545079687893800,10.116893798828125,7.229913711547852,6.745965003967285,0.8551349639892578
1711545079706776600,10.135776611328126,7.045666217803955,6.741179466247559,0.8455637097358704
1711545079725659100,10.1546591796875,6.990631580352783,6.745965003967285,0.7259225845336914
1711545079744541700,10.173541748046874,6.9690961837768555,6.68853759765625,0.7211369276046753
1711545079763424500,10.192424560546876,6.976274490356445,6.70289421081543,0.7905287742614746
1711545079782307000,10.21130712890625,7.0408806800842285,6.808178424835205,0.8288139700889587
1711545079801189600,10.230189697265626,7.0887370109558105,6.834499835968018,0.7163512706756592
1711545079820072400,10.249072509765625,7.210771083831787,6.810571670532227,0.7833502888679504
1711545079838955000,10.267955078125,7.217949390411377,6.623931407928467,0.587138831615448
1711545079857837600,10.286837646484376,7.012166976928711,6.643074035644531,0.46031925082206726
1711545079876720400,10.305720458984375,7.1270222663879395,6.70289421081543,0.4387838542461395
1711545079895603000,10.32460302734375,7.100701332092285,6.62632417678833,0.5799604058265686
1711545079914485500,10.343485595703125,6.9690961837768555,6.592824459075928,0.5392823815345764
1711545079933368300,10.362368408203125,6.8757758140563965,6.576074600219727,0.44356951117515564
1711545079952251000,10.3812509765625,6.911668300628662,6.700501441955566,0.3646063506603241
1711545079971133400,10.400133544921875,6.959524631500244,6.734001159667969,0.40289151668548584
1711545079990016000,10.41901611328125,6.949953556060791,6.693323135375977,0.5201398134231567
1711545080008898800,10.43789892578125,7.033702373504639,6.68853759765625,0.48903313279151917
1711545080027781400,10.456781494140625,7.227520942687988,6.743572235107422,0.4220340847969055
1711545080046664000,10.475663818359376,7.4500532150268555,6.705287456512451,0.5919244885444641
1711545080065546800,10.494546630859375,7.351947784423828,6.69571590423584,0.7713862061500549
1711545080084429300,10.51342919921875,7.007380962371826,6.69571590423584,0.6924230456352234
1711545080103312000,10.532311767578125,6.7417778968811035,6.717251300811768,0.498604416847229
1711545080122194700,10.551194580078125,6.669992923736572,6.585646152496338,0.44356951117515564
1711545080141077200,10.5700771484375,6.658029079437256,6.542575359344482,0.5751747488975525
1711545080159959800,10.588959716796875,6.665207386016846,6.774679183959961,0.5823532342910767
1711545080178842600,10.607842529296875,6.55992317199707,6.990033149719238,0.6038886308670044
1711545080197725200,10.62672509765625,6.514459609985352,7.066603660583496,0.7211369276046753
1711545080216607700,10.645607666015625,6.617351055145264,6.908677101135254,0.7043871879577637
1711545080235490600,10.664490478515624,6.574280261993408,6.75792932510376,0.5177469849586487
1711545080254373000,10.683373046875,6.526423931121826,6.521039962768555,0.34307095408439636
1711545080273255700,10.702255615234375,6.375676155090332,6.358327865600586,0.4292125701904297
1711545080292138200,10.72113818359375,6.413960933685303,6.379863262176514,0.5009972453117371
1711545080311021000,10.74002099609375,6.571887493133545,6.4564337730407715,0.5512465238571167
1711545080329903600,10.758903564453124,6.80877685546875,6.470790863037109,0.7139584422111511
1711545080348786200,10.7777861328125,6.981060028076172,6.317649841308594,0.6948158740997314
1711545080367669000,10.7966689453125,6.796812534332275,6.255436420440674,0.5967101454734802
1711545080386551600,10.815551513671876,6.55992317199707,6.332006931304932,0.5416752099990845
1711545080405434400,10.834434326171875,6.303891181945801,6.592824459075928,0.5799604058265686
1711545080424317000,10.85331689453125,6.478567123413086,6.8512492179870605,0.8144569993019104
1711545080443199500,10.872199462890626,6.990631580352783,7.140780925750732,1.1255239248275757
1711545080462082000,10.89108203125,7.232306480407715,7.425527095794678,1.4533406496047974
1711545080480964900,10.90996484375,7.371089935302734,7.614559650421143,1.6040884256362915
1711545080499847400,10.928847412109375,7.507481098175049,7.6600236892700195,1.5658032894134521
1711545080518730000,10.94772998046875,7.452445983886719,7.748558044433594,1.690230131149292
1711545080537612800,10.96661279296875,7.301698207855225,7.8179497718811035,1.6854444742202759
1711545080556495400,10.985495361328125,7.239484786987305,7.777271747589111,1.5753746032714844
1711545080575378000,11.0043779296875,7.11984395980835,7.578667640686035,1.5083755254745483
1711545080594260700,11.0232607421875,7.0887370109558105,7.16949462890625,1.3025928735733032
1711545080613143300,11.042143310546875,7.069594383239746,6.774679183959961,1.0896315574645996
1711545080632025900,11.06102587890625,6.832705020904541,6.485147476196289,0.9173483848571777
1711545080650908700,11.07990869140625,6.593422889709473,6.233901023864746,0.6565307378768921
1711545080669791200,11.098791259765624,6.375676155090332,6.248258113861084,0.5057829022407532
1711545080688673800,11.117673828125,6.251249313354492,6.466004848480225,0.4387838542461395
1711545080707556600,11.136556640625,6.071787357330322,6.643074035644531,0.376570463180542
1711545080726439200,11.155439208984374,6.000002861022949,6.865606307983398,0.3981058597564697
1711545080745321700,11.17432177734375,6.1914286613464355,6.954140663146973,0.376570463180542
1711545080764204300,11.193204345703125,6.351747512817383,6.934998035430908,0.26889345049858093
1711545080783087000,11.212087158203126,6.260820388793945,6.973283290863037,0.24017956852912903
1711545080801969700,11.2309697265625,6.040680885314941,7.09292459487915,0.3837489187717438
1711545080820852200,11.249852294921874,5.796612739562988,7.22452974319458,0.4292125701904297
1711545080839735000,11.268735107421875,5.760720729827881,7.164709091186523,0.34307095408439636
1711545080858617600,11.28761767578125,6.09332275390625,6.992425918579102,0.31914272904396057
1711545080877500200,11.306500244140626,6.727420806884766,6.8033928871154785,0.2760719060897827
1711545080896383000,11.325383056640625,7.019345283508301,6.76510763168335,0.1707877218723297
1711545080915265500,11.344265625,6.837490558624268,6.877570629119873,0.23300109803676605
1711545080934148000,11.363148193359375,6.784848690032959,7.1024956703186035,0.29042884707450867
1711545080953031000,11.382031005859375,7.115057945251465,7.226922512054443,0.2665006220340729
1711545080971913500,11.40091357421875,7.201199531555176,7.358527660369873,0.532103955745697
1711545080990796000,11.419796142578125,7.627122402191162,7.466204643249512,0.8240283131599426
1711545081009678800,11.438678955078124,8.206185340881348,7.468597888946533,0.7833502888679504
1711545081028561400,11.4575615234375,8.139185905456543,7.554739475250244,0.6230311989784241
1711545081047444000,11.47644384765625,7.58644437789917,7.882555961608887,0.6780661344528198
1711545081066326500,11.495326416015626,7.526623725891113,8.289336204528809,0.587138831615448
1711545081085209300,11.514209228515625,8.124829292297363,8.296514511108398,0.8575277924537659
1711545081104092000,11.533091796875,9.591629981994629,7.695915699005127,1.108774185180664
1711545081122974500,11.551974365234376,10.529616355895996,7.064210414886475,1.0704890489578247
1711545081141857300,11.570857177734375,10.754541397094727,6.655037879943848,0.9293124675750732
1711545081160739800,11.58973974609375,10.280762672424316,6.399005889892578,0.8216354846954346
1711545081179622400,11.608622314453125,9.742377281188965,6.207580089569092,0.9125627279281616
1711545081198505200,11.627505126953125,9.452845573425293,6.013761520385742,1.3073785305023193
1711545081217387800,11.6463876953125,8.971888542175293,5.5998029708862305,1.6112669706344604
1711545081236270300,11.665270263671875,7.995616912841797,5.197809219360352,1.654337763786316
1711545081255153200,11.684153076171874,6.880561351776123,4.948955535888672,1.0920244455337524
1711545081274035700,11.70303564453125,5.8923258781433105,4.8436713218688965,0.33828529715538025
1711545081292918300,11.721918212890625,4.971088886260986,4.858027935028076,-0.3556332588195801
1711545081311801000,11.740801025390626,4.322634220123291,4.860421180725098,-1.0040881633758545
1711545081330683600,11.75968359375,4.045066833496094,4.786243438720703,-1.7171493768692017
1711545081349566200,11.778566162109374,4.380061626434326,4.7503509521484375,-2.7747769355773926
1711545081368448800,11.79744873046875,5.006981372833252,4.111467361450195,-2.3584258556365967
1711545081387331600,11.81633154296875,7.256234645843506,4.470390796661377,-3.265305519104004
1711545081406214100,11.835214111328124,7.916653633117676,5.640480995178223,-3.9089748859405518
1711545081425096700,11.8540966796875,7.122236728668213,6.142973899841309,-2.5785655975341797
1711545081443979500,11.8729794921875,6.602993965148926,5.886941909790039,-0.07328019291162491
1711545081462862000,11.891862060546876,6.885347366333008,6.236293792724609,1.0944172143936157
1711545081481744600,11.91074462890625,7.031309127807617,6.70289421081543,1.4557334184646606
1711545081500627200,11.929627197265624,6.758527755737305,6.717251300811768,1.2643076181411743
1711545081519510000,11.948510009765625,7.076773166656494,6.628716945648193,0.589531660079956
1711545081538392600,11.967392578125,7.605587005615234,6.887141704559326,0.2234298139810562
1711545081557275100,11.986275146484376,8.00518798828125,7.41834831237793,0.5368895530700684
1711545081576158000,12.005157958984375,8.249256134033203,7.896913051605225,0.8335995674133301
1711545081595040500,12.02404052734375,8.376075744628906,8.117053031921387,1.0657033920288086
1711545081613923000,12.042923095703125,8.569893836975098,8.050053596496582,1.084846019744873
1711545081632806000,12.061805908203125,8.550751686096191,7.616952896118164,0.8288139700889587
1711545081651688400,12.0806884765625,7.816154956817627,7.112067222595215,0.3813561201095581
1711545081670571000,12.099571044921875,7.1270222663879395,6.853642463684082,-0.1498505175113678
1711545081689453600,12.11845361328125,6.887740135192871,6.741179466247559,-0.46809592843055725
1711545081708336400,12.13733642578125,6.650850772857666,6.76510763168335,-0.43220359086990356
1711545081727219000,12.156218994140625,6.1914286613464355,6.7076802253723145,-0.4298107624053955
1711545081746101500,12.1751015625,6.227321147918701,6.662216663360596,-0.4537389874458313
1711545081764984300,12.193984375,6.820741176605225,6.858428001403809,-0.5279164910316467
1711545081783867000,12.212866943359375,6.653243541717529,7.143173694610596,-0.6499504446983337
1711545081802749400,12.23174951171875,5.763113498687744,7.595417499542236,-0.8796614408493042
1711545081821632000,12.250632080078125,5.3802618980407715,8.014161109924316,-1.0016953945159912
1711545081840514800,12.269514892578124,5.921039581298828,8.49990463256836,-0.7145566344261169
1711545081859397400,12.2883974609375,7.359126091003418,8.787042617797852,-0.2718844711780548
1711545081878280000,12.307280029296875,8.847461700439453,9.004789352416992,0.09900303930044174
1711545081897162500,12.32616259765625,10.007980346679688,9.110074043273926,0.21385852992534637
1711545081916045300,12.34504541015625,9.78544807434082,9.512067794799805,0.4004986882209778
1711545081934928000,12.363927978515624,7.988438606262207,9.866206169128418,0.20428723096847534
1711545081953810400,12.382810546875,6.169893264770508,10.091131210327148,-0.5111667513847351
1711545081972693000,12.40169287109375,6.978667259216309,9.686744689941406,-1.0734800100326538
1711545081991575800,12.420575927734374,9.687342643737793,8.081160545349121,-1.0758728981018066
1711545082010458400,12.439458251953125,12.372089385986328,5.827121257781982,-0.5781657695770264
1711545082029341000,12.4583408203125,12.826725959777832,4.0803608894348145,0.48903313279151917
1711545082048223700,12.4772236328125,10.5152587890625,3.3026933670043945,1.7356936931610107
1711545082067106300,12.496106201171875,7.15812873840332,3.202194929122925,2.051546335220337
1711545082085988900,12.51498876953125,4.777270317077637,3.1758737564086914,1.8290138244628906
1711545082104871400,12.533871337890625,3.504288673400879,2.9940192699432373,1.750050663948059
1711545082123754200,12.552754150390625,3.284149169921875,2.7810580730438232,0.6828517913818359
1711545082142636800,12.57163671875,3.497110366821289,3.4845480918884277,-0.7863413691520691
1711545082161519400,12.590519287109375,3.3104701042175293,5.164309501647949,-1.9229321479797363
1711545082180402000,12.60940185546875,3.3846476078033447,7.0546393394470215,-2.36081862449646
1711545082199284700,12.62828466796875,4.796412944793701,8.169694900512695,-0.7983054518699646
1711545082218167300,12.647167236328125,6.736992359161377,8.791828155517578,1.2667005062103271
1711545082237049900,12.6660498046875,9.340383529663086,8.626724243164062,2.2692930698394775
1711545082255932400,12.684932373046875,10.608579635620117,7.461419105529785,2.185544490814209
1711545082274815200,12.703815185546874,10.278369903564453,6.162116527557373,1.2690932750701904
1711545082293697800,12.72269775390625,9.012566566467285,5.56151819229126,-0.32691940665245056
1711545082312580400,12.741580322265625,7.536194801330566,5.224130153656006,-0.8246265053749084
1711545082331463000,12.760462890625,6.449853420257568,5.011168956756592,-0.3556332588195801
1711545082350345700,12.779345703125,5.559723377227783,5.0949177742004395,0.18753747642040253
1711545082369228300,12.798228271484374,4.7988057136535645,5.420341491699219,0.5919244885444641
1711545082388110800,12.81711083984375,4.284348964691162,5.776872158050537,0.7881359457969666
1711545082406993400,12.835993408203125,3.8321053981781006,5.516054630279541,0.8718847632408142
1711545082425876200,12.854876220703124,4.258028030395508,6.0472612380981445,0.37896329164505005
1711545082444758800,12.8737587890625,5.74397087097168,6.872784614562988,0.6493522524833679
1711545082463641300,12.892641357421875,6.686742782592773,7.052246570587158,1.3408780097961426
1711545082482524000,12.91152392578125,7.27537727355957,6.899106025695801,2.20947265625
1711545082501406700,12.93040673828125,8.103293418884277,6.992425918579102,2.2788643836975098
1711545082520289300,12.949289306640624,8.550751686096191,7.202994346618652,2.051546335220337
1711545082539171800,12.968171875,9.464810371398926,7.150352478027344,1.8170497417449951
1711545082558054400,12.987054443359375,10.596614837646484,6.9206414222717285,1.2403794527053833
1711545082576937200,13.005937255859376,10.917253494262695,6.63350248336792,0.3000001311302185
1711545082595819800,13.02481982421875,9.163313865661621,7.238886833190918,-0.1618146300315857
1711545082614702300,13.043702392578124,7.380661487579346,8.839685440063477,-0.07806584239006042
1711545082633585000,13.0625849609375,6.55992317199707,9.981060981750488,0.773779034614563
1711545082652467700,13.0814677734375,7.15812873840332,10.012167930603027,1.8194425106048584
1711545082671350300,13.100350341796876,8.72782039642334,8.968897819519043,1.6447664499282837
1711545082690232800,13.11923291015625,10.106086730957031,7.317849636077881,0.29760730266571045
1711545082709115400,13.138115478515624,10.079765319824219,5.640480995178223,-0.7073782086372375
1711545082727998000,13.156998046875,8.833105087280273,4.661816596984863,-1.4012967348098755
1711545082746880800,13.175880859375,7.440482139587402,4.539782524108887,-1.2649059295654297
1711545082765763300,13.194763427734374,6.519245147705078,4.9776692390441895,-0.20488543808460236
1711545082784646000,13.21364599609375,5.633901119232178,5.315057277679443,0.24017956852912903
1711545082803528400,13.232528564453125,4.590630054473877,5.477769374847412,-0.18095721304416656
1711545082822411000,13.251410888671876,3.671786308288574,5.731408596038818,-0.8892326951026917
1711545082841293800,13.2702939453125,3.4468610286712646,6.109474182128906,-1.3773685693740845
1711545082860176400,13.28917626953125,4.2245283126831055,6.583253383636475,-1.353440284729004
1711545082879059000,13.308058837890625,6.045466423034668,6.549753665924072,-1.4946168661117554
1711545082897941500,13.32694140625,7.806583881378174,6.174080848693848,-2.1143579483032227
1711545082916824300,13.34582421875,8.85224723815918,5.62373161315918,-2.4278175830841064
1711545082935707000,13.364706787109375,8.967103004455566,5.145166873931885,-1.872682809829712
1711545082954589700,13.383589599609374,8.368897438049316,5.130809783935547,-0.7648059129714966
1711545082973472300,13.40247216796875,7.210771083831787,5.721837043762207,0.18753747642040253
1711545082992354800,13.421354736328125,6.2105712890625,6.655037879943848,0.8288139700889587
1711545083011237400,13.4402373046875,5.44008207321167,7.193423271179199,1.1614162921905518
1711545083030120000,13.459119873046875,5.284548759460449,7.289135932922363,0.8216354846954346
1711545083049002800,13.478002685546874,6.3014984130859375,6.870391845703125,0.11575279384851456
1711545083067885300,13.49688525390625,7.911868095397949,6.396613121032715,-0.49202415347099304
1711545083086767900,13.515767822265625,8.730213165283203,6.142973899841309,-0.6906284093856812
1711545083105650400,13.534650390625,8.598608016967773,6.207580089569092,-0.5327021479606628
1711545083124533200,13.553533203125,7.651050567626953,6.6454668045043945,-0.508773922920227
1711545083143415800,13.572415771484375,6.799205780029297,6.973283290863037,-0.6738786697387695
1711545083162298400,13.59129833984375,6.488138675689697,7.03788948059082,-0.7528418302536011
1711545083181181000,13.610180908203125,7.117451190948486,6.999604225158691,-0.8198408484458923
1711545083200063500,13.6290634765625,8.179863929748535,6.87517786026001,-0.7600203156471252
1711545083218946000,13.647946044921875,8.914461135864258,6.686144828796387,-0.8294121623039246
1711545083237828900,13.666828857421875,8.818747520446777,6.549753665924072,-0.9323035478591919
1711545083256711400,13.68571142578125,8.368897438049316,6.573681831359863,-1.0663015842437744
1711545083275594000,13.704593994140625,8.165507316589355,6.554539203643799,-1.0256235599517822
1711545083294476500,13.7234765625,7.981259822845459,6.475576400756836,-0.9155537486076355
1711545083313359000,13.742359130859375,7.775477409362793,6.511468410491943,-0.781555712223053
1711545083332241700,13.76124169921875,7.076773166656494,6.9134626388549805,-0.4776672124862671
1711545083351124500,13.78012451171875,6.215356826782227,7.6049885749816895,-0.12352947145700455
1711545083370007000,13.799007080078125,6.200999736785889,8.24387264251709,0.21385852992534637
1711545083388889600,13.8178896484375,6.873383045196533,8.303692817687988,0.5105685591697693
1711545083407772200,13.836772216796875,8.287541389465332,7.882555961608887,0.6158527135848999
1711545083426654700,13.85565478515625,9.694520950317383,7.064210414886475,0.6876373887062073
1711545083445537300,13.874537353515626,10.25204849243164,6.176473617553711,0.9747761487960815
1711545083464420000,13.893420166015625,9.120243072509766,5.470590591430664,1.328913927078247
1711545083483302700,13.912302734375,6.799205780029297,5.322235584259033,1.2044870853424072
1711545083502185200,13.931185302734375,5.162514686584473,5.2145586013793945,0.8838488459587097
1711545083521067800,13.95006787109375,4.5308098793029785,4.913063049316406,0.740279495716095
1711545083539950300,13.968950439453126,4.569094657897949,4.735994338989258,0.3646063506603241
1711545083558833000,13.9878330078125,4.695914268493652,4.716851711273193,-0.1091725304722786
1711545083577715500,14.006715576171874,4.559523582458496,4.814957141876221,-0.7025925517082214
1711545083596598300,14.025598388671876,4.676771640777588,5.116453170776367,-1.150050401687622
1711545083615480800,14.044480712890625,5.7750773429870605,5.721837043762207,-1.0256235599517822
1711545083634363400,14.06336328125,7.390232563018799,6.324828624725342,-0.3891327679157257
1711545083653246000,14.082245849609375,9.18006420135498,7.0067830085754395,0.5799604058265686
1711545083672128500,14.10112841796875,10.917253494262695,7.727022647857666,1.6447664499282837
1711545083691011000,14.120010986328126,12.029915809631348,7.966304779052734,2.281257390975952
1711545083709893600,14.1388935546875,12.276376724243164,7.624131202697754,1.9606190919876099
1711545083728776400,14.1577763671875,11.316854476928711,6.81296443939209,0.9771689176559448
1711545083747659000,14.176658935546875,9.56770133972168,5.891727447509766,0.05832505226135254
1711545083766541600,14.19554150390625,7.529016494750977,5.346164226531982,-0.2312064915895462
1711545083785424100,14.214424072265626,5.61236572265625,5.226522922515869,-0.4465605318546295
1711545083804306700,14.233306640625,4.4374895095825195,5.401198863983154,-0.716949462890625
1711545083823189200,14.252189208984374,4.078566074371338,5.580660820007324,-0.7001997232437134
1711545083842072000,14.271072021484375,4.7126641273498535,5.712265968322754,-0.626022219657898
1711545083860954400,14.289954345703125,6.232106685638428,5.659623622894287,-0.5327021479606628
1711545083879837200,14.308837158203126,7.732406139373779,5.681159019470215,-0.20488543808460236
1711545083898719700,14.3277197265625,8.368897438049316,6.147759437561035,0.18753747642040253
1711545083917602300,14.346602294921874,7.569694519042969,7.001997470855713,0.9795617461204529
1711545083936484900,14.36548486328125,7.428517818450928,7.631309509277344,1.6136597394943237
1711545083955367400,14.384367431640625,9.424132347106934,7.607381343841553,1.6304094791412354
1711545083974250000,14.40325,11.754741668701172,6.734001159667969,1.6375880241394043
1711545083993132500,14.422132568359375,12.429516792297363,5.56869649887085,0.9029914736747742
1711545084012015000,14.44101513671875,10.481760025024414,4.8675994873046875,0.041575293987989426
1711545084030898000,14.45989794921875,7.871190071105957,4.927420139312744,-0.41066819429397583
1711545084049780500,14.478780517578125,5.251049518585205,5.295914649963379,-0.2503490746021271
1711545084068663000,14.4976630859375,3.4923245906829834,5.944369792938232,-0.05174478888511658
1711545084087545600,14.516545654296875,2.640479803085327,6.717251300811768,0.12293126434087753
1711545084106428200,14.53542822265625,3.1166515350341797,7.303493022918701,0.19950158894062042
1711545084125310700,14.554310791015626,5.327619552612305,7.2125654220581055,0.1899302899837494
1711545084144193300,14.573193359375,7.627122402191162,6.667002201080322,-0.01585244946181774
1711545084163075800,14.592075927734374,9.873982429504395,6.241079807281494,-0.07806584239006042
1711545084181958400,14.61095849609375,11.170892715454102,6.056832313537598,0.18035900592803955
1711545084200841200,14.62984130859375,10.479366302490234,6.188437461853027,0.47228336334228516
1711545084219723800,14.648723876953126,8.438288688659668,6.521039962768555,0.2593221664428711
1711545084238606300,14.6676064453125,6.679564476013184,6.530611038208008,0.020039889961481094
1711545084257489000,14.686489013671874,5.542973518371582,6.394220352172852,-0.20488543808460236
1711545084276371500,14.705371337890625,5.14576530456543,6.327221393585205,-0.43938204646110535
1711545084295254000,14.72425390625,5.648257732391357,6.336792469024658,-0.37956148386001587
1711545084314136600,14.743136474609376,6.6245293617248535,6.6215386390686035,-0.06849455088376999
1711545084333019100,14.76201904296875,7.404589653015137,6.8273210525512695,0.39092740416526794
1711545084351901700,14.780901611328124,7.859225749969482,6.901498794555664,0.6972087025642395
1711545084370784300,14.7997841796875,8.299505233764648,6.906284332275391,0.862313449382782
1711545084389666800,14.818666748046875,8.13679313659668,6.870391845703125,0.9221340417861938
1711545084408549400,14.83754931640625,7.299305438995361,6.844070911407471,0.7067800164222717
1711545084427432000,14.856431884765625,6.567101955413818,6.798607349395752,0.4220340847969055
1711545084446314800,14.875314697265624,6.49770975112915,6.659823417663574,0.13968102633953094
1711545084465197300,14.894197265625,6.562315940856934,6.516254425048828,0.005682953633368015
1711545084484079900,14.913079833984375,6.605386734008789,6.56411075592041,0.06789634376764297
1711545084502962400,14.93196240234375,6.787241458892822,6.860820770263672,0.19710876047611237
1711545084521845000,14.950844970703125,7.347161769866943,7.025925636291504,0.36699917912483215
1711545084540727600,14.9697275390625,7.694121360778809,6.999604225158691,0.3813561201095581
1711545084559610000,14.988610107421875,7.679764270782471,6.829713821411133,0.25692933797836304
1711545084578492700,15.00749267578125,7.296912670135498,6.745965003967285,0.1372881978750229
1711545084597375200,15.026375244140626,6.770491600036621,6.8033928871154785,0.05353940650820732
1711545084616257800,15.0452578125,6.385247230529785,6.822535514831543,0.06311069428920746
1711545084635140400,15.064140380859374,6.189035892486572,6.712465763092041,0.024825535714626312
1711545084654023000,15.08302294921875,6.107679843902588,6.576074600219727,-0.0445663221180439
1711545084672905500,15.101905517578125,6.0741801261901855,6.5521464347839355,-0.1905284970998764
1711545084691788000,15.1207880859375,6.150750637054443,6.611967086791992,-0.353240430355072
1711545084710670600,15.139670654296875,6.6245293617248535,6.726822853088379,-0.4465605318546295
1711545084729553200,15.15855322265625,7.251449108123779,6.623931407928467,-0.4704887568950653
1711545084748435700,15.177435791015625,7.612765312194824,6.537789821624756,-0.4657030999660492
1711545084767318300,15.196318359375,7.521838188171387,6.583253383636475,-0.5350949764251709
1711545084786200800,15.215200927734376,7.134200572967529,6.700501441955566,-0.4082753658294678
1711545084805083400,15.23408349609375,6.698707103729248,6.8823561668396,-0.23838496208190918
1711545084823966200,15.25296630859375,6.854240417480469,7.0067830085754395,0.012861421331763268
1711545084842848800,15.271848876953126,7.27537727355957,6.939784049987793,0.19950158894062042
1711545084861731300,15.2907314453125,7.588837146759033,6.808178424835205,0.3358924686908722
1711545084880614000,15.30961376953125,7.634300708770752,6.698108673095703,0.5416752099990845
1711545084899496400,15.328496337890625,7.454838752746582,6.597609996795654,0.6254240274429321
1711545084918379000,15.34737890625,7.083951473236084,6.437291145324707,0.6565307378768921
1711545084937261600,15.366261474609376,6.930810928344727,6.267400741577148,0.6996015310287476
1711545084956144000,15.38514404296875,6.830312252044678,6.171687602996826,0.9556335210800171
1711545084975026700,15.404026611328124,6.471388816833496,6.186044692993164,1.2355937957763672
1711545084993909200,15.4229091796875,6.337390899658203,6.142973899841309,1.3001999855041504
1711545085012791800,15.441791748046874,6.275177478790283,6.001797199249268,1.0657033920288086
1711545085031674400,15.46067431640625,5.645864963531494,6.095117568969727,0.5727819204330444
1711545085050557000,15.479556884765625,5.423332691192627,6.6693949699401855,0.3047857880592346
1711545085069439500,15.498439453125,6.076572895050049,7.497311592102051,0.9508479237556458
1711545085088322000,15.517322021484375,7.507481098175049,8.157731056213379,1.9438693523406982
1711545085107204600,15.53620458984375,9.507881164550781,8.5764741897583,2.822035312652588
1711545085126087200,15.555087158203126,11.211570739746094,8.404191017150879,3.123530864715576
1711545085144969700,15.5739697265625,11.01296615600586,7.461419105529785,2.4631118774414062
1711545085163852300,15.592852294921874,8.780462265014648,6.434898376464844,1.1422736644744873
1711545085182734800,15.61173486328125,6.643671989440918,5.855835437774658,0.22821545600891113
1711545085201617400,15.630617431640625,5.234299659729004,5.49930477142334,-0.19292132556438446
1711545085220500000,15.6495,4.734199523925781,5.2839508056640625,-0.22642084956169128
1711545085239382500,15.668382568359375,4.660022258758545,5.204987525939941,-0.2312064915895462
1711545085258265000,15.68726513671875,4.90408992767334,5.358128070831299,-0.5015954375267029
1711545085277147600,15.706147705078125,4.892126083374023,5.767300605773926,-0.6523432731628418
1711545085296030200,15.7250302734375,5.30847692489624,6.360720634460449,-0.17138592898845673
1711545085314912800,15.743912841796876,6.222535133361816,6.927819728851318,0.6014958024024963
1711545085333795300,15.76279541015625,7.208378314971924,7.2197442054748535,0.9675976634025574
1711545085352678000,15.781677978515624,8.201399803161621,7.274778842926025,1.0680961608886719
1711545085371560400,15.800560546875,8.907281875610352,7.336992263793945,1.4054841995239258
1711545085390442800,15.81944287109375,9.345169067382812,7.262814998626709,1.596909999847412
1711545085409325600,15.83832568359375,9.129815101623535,6.784250259399414,1.1925230026245117
1711545085428208000,15.8572080078125,8.275577545166016,6.171687602996826,0.5464608669281006
1711545085447090700,15.876090576171874,7.208378314971924,5.9300127029418945,0.2521436810493469
1711545085465973200,15.89497314453125,6.464210510253906,6.142973899841309,0.32153555750846863
1711545085484855800,15.913855712890625,6.021538257598877,6.451648235321045,0.6373881101608276
1711545085503738000,15.932738037109376,5.674578666687012,6.75792932510376,0.9795617461204529
1711545085522620700,15.95162060546875,5.739185333251953,6.887141704559326,1.2284153699874878
1711545085541503200,15.970503173828124,6.449853420257568,7.016354084014893,1.1063814163208008
1711545085560385800,15.9893857421875,7.588837146759033,7.112067222595215,0.6732804775238037
1711545085579268400,16.008268310546875,8.335397720336914,6.9756760597229,0.23300109803676605
1711545085598151000,16.02715087890625,8.622536659240723,6.884748935699463,-0.3412763178348541
1711545085617033500,16.046033447265625,7.555337429046631,7.3058857917785645,-0.4824528694152832
1711545085635916000,16.064916015625,5.741578102111816,8.215158462524414,0.10857433080673218
1711545085654798600,16.083798583984375,6.011966705322266,9.028717994689941,0.654137909412384
1711545085673681200,16.10268115234375,9.103493690490723,8.796614646911621,1.1518449783325195
1711545085692563700,16.121563720703126,11.891132354736328,7.963912010192871,0.6780661344528198
1711545085711446300,16.1404462890625,13.695320129394531,7.205387115478516,-0.628415048122406
1711545085730328800,16.159328857421876,13.898710250854492,6.848856449127197,-1.0423734188079834
1711545085749211400,16.17821142578125,12.446267127990723,7.045068264007568,0.3478565812110901
1711545085768094000,16.197093994140626,10.27597713470459,7.064210414886475,1.6471593379974365
1711545085786976500,16.2159765625,8.09850788116455,6.308078765869141,2.1352951526641846
1711545085805859000,16.234859130859373,6.071787357330322,5.147559642791748,1.9103697538375854
1711545085824741600,16.25374169921875,4.6887359619140625,3.9774694442749023,1.1494522094726562
1711545085843624200,16.272624267578124,3.5569307804107666,3.147160053253174,0.20907287299633026
1711545085862506500,16.291506591796875,2.9802606105804443,2.9078776836395264,-0.8174480199813843
1711545085881389000,16.31038916015625,2.6356940269470215,3.0011978149414062,-1.6669000387191772
1711545085900271600,16.329271728515625,2.5184457302093506,3.3792638778686523,-1.6501502990722656
1711545085919154200,16.348154296875,4.131208419799805,4.396213531494141,-2.2938196659088135
1711545085938036700,16.36703662109375,5.787041664123535,5.595017433166504,-3.0260233879089355
1711545085956919300,16.385919189453126,7.964509963989258,6.279364585876465,-3.179163932800293
1711545085975801900,16.4048017578125,9.591629981994629,6.712465763092041,-2.7580273151397705
1711545085994684400,16.423684326171873,10.086943626403809,7.004390239715576,-2.140678882598877
1711545086013567000,16.44256689453125,9.541379928588867,7.021139621734619,-1.3965110778808594
1711545086032449500,16.461449462890624,8.304290771484375,6.927819728851318,-0.5925226807594299
1711545086051332000,16.48033203125,7.052844524383545,6.6143598556518555,0.1372881978750229
1711545086070214700,16.499214599609374,5.964110374450684,6.413362979888916,0.5703890919685364
1711545086089097000,16.518096923828125,5.4041900634765625,6.401398658752441,0.8144569993019104
1711545086107979500,16.5369794921875,5.2390851974487305,6.3152570724487305,0.8503493666648865
1711545086126862000,16.555862060546875,5.1768717765808105,5.999404430389404,0.6158527135848999
1711545086145744600,16.57474462890625,5.521438121795654,6.207580089569092,0.2066800594329834
1711545086164627200,16.593627197265626,5.614758491516113,6.276971817016602,-0.34606197476387024
1711545086183509800,16.612509765625,4.686343193054199,6.5042901039123535,-0.4226323068141937
1711545086202392300,16.631392333984376,6.662814617156982,7.358527660369873,-1.6238292455673218
1711545086221275000,16.65027490234375,7.706085205078125,8.260622024536133,-2.645564556121826
1711545086240157400,16.669157470703126,8.440681457519531,8.341978073120117,-2.336890459060669
1711545086259039700,16.688039794921874,9.058030128479004,8.207980155944824,-2.0282163619995117
1711545086277922300,16.70692236328125,9.53659439086914,8.224729537963867,-1.9731813669204712
1711545086296804900,16.725804931640624,10.878968238830566,7.5978102684021,-2.241177558898926
1711545086315687400,16.7446875,11.510673522949219,6.887141704559326,-2.5283162593841553
1711545086334570000,16.763570068359375,11.797812461853027,6.7316083908081055,-2.738884687423706
1711545086353452500,16.78245263671875,10.287940979003906,7.3298139572143555,-1.9061822891235352
1711545086372335000,16.801335205078125,8.249256134033203,8.33719253540039,-0.7983054518699646
1711545086391217700,16.8202177734375,8.376075744628906,8.873184204101562,0.2521436810493469
1711545086410100200,16.839100341796875,9.754341125488281,8.684151649475098,1.0824531316757202
1711545086428982800,16.857982666015626,10.608579635620117,7.777271747589111,1.9055840969085693
1711545086447865000,16.876864990234374,11.154142379760742,6.154938220977783,2.0946171283721924
1711545086466747600,16.89574755859375,10.587043762207031,4.444069862365723,1.5035899877548218
1711545086485630200,16.914630126953124,7.923832416534424,3.4510483741760254,0.587138831615448
1711545086504512800,16.9335126953125,5.2630133628845215,2.953341245651245,0.20907287299633026
1711545086523395300,16.952395263671875,3.346362352371216,2.9629125595092773,0.4938187599182129
1711545086542278000,16.97127783203125,2.149951219558716,3.7573297023773193,0.4244269132614136
1711545086561160400,16.990160400390625,2.310270309448242,5.061418056488037,-0.9442676305770874
1711545086580042800,17.009042724609376,3.961317777633667,6.250650882720947,-2.6790640354156494
1711545086598925300,17.02792529296875,5.672185897827148,6.690930366516113,-2.6718854904174805
1711545086617808000,17.046807861328126,7.634300708770752,6.537789821624756,-1.3797613382339478
1711545086636690400,17.0656904296875,9.18724250793457,6.011368751525879,-0.4465605318546295
1711545086655573000,17.084572998046873,9.34277629852295,5.697908878326416,0.046360939741134644
1711545086674455600,17.10345556640625,7.110272407531738,5.7170515060424805,-0.15463615953922272
1711545086693337900,17.122337890625,4.851448059082031,5.664409637451172,-0.5183451771736145
1711545086712220400,17.141220458984375,3.466003656387329,5.535196781158447,-0.6954140663146973
1711545086731103000,17.16010302734375,3.0616166591644287,5.5136613845825195,-1.2553346157073975
1711545086749985500,17.178985595703125,3.583251953125,5.427519798278809,-1.8583258390426636
1711545086768868000,17.1978681640625,4.774877548217773,5.4179487228393555,-1.8678971529006958
1711545086787750700,17.216750732421875,5.916254043579102,5.7888360023498535,-0.9490532875061035
1711545086806633000,17.235633056640626,7.500302791595459,6.231508255004883,0.21625134348869324
1711545086825515500,17.254515625,8.660821914672852,6.628716945648193,1.3336994647979736
1711545086844398000,17.273398193359377,8.519644737243652,6.9756760597229,1.9989042282104492
1711545086863280600,17.29228076171875,7.464410305023193,7.406384468078613,1.6136597394943237
1711545086882163200,17.3111630859375,6.763313293457031,7.593024253845215,1.0657033920288086
1711545086901045800,17.330045654296875,7.251449108123779,7.523632526397705,0.7187440991401672
1711545086919928000,17.348927978515626,8.656036376953125,7.399205684661865,0.376570463180542
1711545086938810600,17.367810546875,10.654043197631836,7.284350395202637,-0.18335004150867462
1711545086957693200,17.386693115234376,10.99860954284668,7.916055679321289,-0.8940183520317078
1711545086976575700,17.40557568359375,8.37129020690918,9.634101867675781,-1.3606188297271729
1711545086995458300,17.424458251953126,6.337390899658203,11.163115501403809,-1.0112667083740234
1711545087014340900,17.4433408203125,7.3639116287231445,11.37368392944336,0.21146570146083832
1711545087033223200,17.46222314453125,10.15872859954834,10.2418794631958,0.709172785282135
1711545087052105700,17.481105712890624,13.26700496673584,8.36590576171875,0.12771691381931305
1711545087070988300,17.49998828125,14.477773666381836,5.827121257781982,-0.7217351198196411
1711545087089870800,17.518870849609375,12.360125541687012,3.620938777923584,-1.4467604160308838
1711545087108753400,17.53775341796875,8.967103004455566,2.754737138748169,-1.9468603134155273
1711545087127636000,17.556635986328125,5.822933673858643,2.8217360973358154,-1.7147564888000488
1711545087146518300,17.575518310546876,3.188436269760132,3.31465744972229,-1.181157112121582
1711545087165400800,17.59440087890625,1.4321043491363525,4.008575916290283,-1.3701900243759155
1711545087184283400,17.613283447265626,0.989432156085968,4.415356159210205,-2.133500576019287
1711545087203166000,17.632166015625,2.1092731952667236,4.712066173553467,-2.518744945526123
1711545087222048500,17.651048583984377,4.356133460998535,5.0087761878967285,-2.2698912620544434
1711545087240930800,17.669930908203124,6.318248271942139,5.482554912567139,-1.8080766201019287
1711545087259813400,17.6888134765625,7.727620601654053,5.824728488922119,-1.480259895324707
1711545087278696000,17.707696044921875,8.684749603271484,5.889334678649902,-0.8748757839202881
1711545087297578500,17.72657861328125,9.371489524841309,6.052046775817871,-0.12352947145700455
1711545087316461000,17.7454609375,9.058030128479004,6.360720634460449,0.4866403043270111
1711545087335343400,17.76434326171875,7.806583881378174,6.5042901039123535,0.5703890919685364
1711545087354226000,17.783225830078123,6.5527448654174805,6.186044692993164,0.14925231039524078
1711545087373108500,17.8021083984375,5.794219970703125,5.733801364898682,-0.36281174421310425
1711545087391991000,17.820990966796874,5.373083114624023,5.432305812835693,-0.836590588092804
1711545087410873600,17.83987353515625,5.447260856628418,5.365306377410889,-1.413260817527771
1711545087429756000,17.858755859375,5.827719688415527,5.4658050537109375,-1.841576099395752
1711545087448638500,17.877638427734375,6.284748554229736,5.803193092346191,-1.7745771408081055
1711545087467521000,17.89652099609375,7.045666217803955,6.387042045593262,-1.169192910194397
1711545087486403600,17.915403564453126,8.096115112304688,6.839285373687744,-0.37956148386001587
1711545087505286000,17.934285888671877,8.411968231201172,7.021139621734619,-0.056530434638261795
1711545087524168400,17.95316845703125,7.349554538726807,7.176673412322998,-0.4465605318546295
1711545087543051000,17.972051025390623,6.818347930908203,7.310671329498291,-1.1931211948394775
1711545087561933600,17.99093359375,7.512266635894775,7.681559085845947,-1.8056837320327759
1711545087580816000,18.00981591796875,9.084351539611816,8.416155815124512,-2.0665013790130615
1711545087599698400,18.028698486328125,10.979466438293457,9.071788787841797,-1.6142579317092896
1711545087618581000,18.0475810546875,12.55155086517334,9.46899700164795,-0.28624141216278076
1711545087637463600,18.066463623046875,13.350753784179688,9.519247055053711,0.773779034614563
1711545087656346000,18.08534619140625,13.02772331237793,9.258428573608398,1.2092727422714233
1711545087675228400,18.104228515625,12.269198417663574,8.60758113861084,1.3719847202301025
1711545087694111000,18.123111083984377,12.123235702514648,6.978068828582764,1.6423736810684204
1711545087712993500,18.14199365234375,11.252248764038086,4.958526611328125,1.537089467048645
1711545087731876000,18.1608759765625,8.780462265014648,3.43190598487854,1.163809061050415
1711545087750758400,18.17975830078125,5.607579708099365,2.5800609588623047,1.1566306352615356
1711545087769641000,18.198640869140625,3.4540395736694336,2.0033907890319824,1.5825530290603638
1711545087788523500,18.2175234375,2.5495524406433105,1.893320918083191,2.027618169784546
1711545087807406000,18.236406005859376,2.169093608856201,2.5704896450042725,1.5825530290603638
1711545087826288400,18.255288330078123,2.011167526245117,4.386641979217529,-0.47288158535957336
1711545087845171000,18.2741708984375,2.3772692680358887,6.611967086791992,-2.1670000553131104
1711545087864053500,18.293053466796874,4.214957237243652,7.5978102684021,-1.5257235765457153
1711545087882936000,18.31193603515625,7.6390862464904785,7.320242881774902,0.5177469849586487
1711545087901818400,18.330818359375,11.194820404052734,6.406184196472168,1.3265210390090942
1711545087920701000,18.349700927734375,12.783655166625977,5.731408596038818,1.013061285018921
1711545087939583500,18.36858349609375,10.29033374786377,5.384449005126953,-0.04695914313197136
1711545087958466000,18.387466064453125,7.052844524383545,5.137988567352295,-0.6403791308403015
1711545087977348400,18.406348388671876,4.89691162109375,5.044668197631836,-0.8581260442733765
1711545087996231000,18.42523095703125,4.023531436920166,5.042275428771973,-1.0208379030227661
1711545088015113500,18.444113525390627,3.8536407947540283,5.2145586013793945,-1.051944613456726
1711545088033995800,18.462995849609374,4.157529354095459,5.504090309143066,-0.7025925517082214
1711545088052878300,18.48187841796875,5.466403484344482,5.879763603210449,-0.23599213361740112
1711545088071761000,18.500760986328125,6.866204738616943,6.075974941253662,0.4746761918067932
1711545088090643500,18.5196435546875,7.966903209686279,6.418148517608643,1.2643076181411743
1711545088109525800,18.53852587890625,8.093722343444824,6.829713821411133,1.7380865812301636
1711545088128408300,18.557408203125,7.229913711547852,7.095317363739014,1.4629119634628296
1711545088147291000,18.576290771484373,6.985845565795898,7.042675018310547,0.831206738948822
1711545088166173400,18.59517333984375,7.665407180786133,6.815357208251953,0.5584250092506409
1711545088185055700,18.6140556640625,8.718249320983887,6.781857490539551,0.4579264223575592
1711545088203938300,18.632938232421875,10.017552375793457,6.846463680267334,0.20428723096847534
1711545088222820900,18.65182080078125,11.051251411437988,7.0785675048828125,-0.49680981040000916
1711545088241703200,18.670703125,8.9910306930542,8.495118141174316,-0.9370891451835632
1711545088260585700,18.689585693359376,6.806384086608887,9.978668212890625,-0.6547361016273499
1711545088279468300,18.70846826171875,7.308876991271973,10.689336776733398,0.4914259612560272
1711545088298350800,18.727350830078127,10.029516220092773,10.244272232055664,1.7261223793029785
1711545088317233200,18.746233154296874,13.424931526184082,8.672187805175781,1.927119493484497
1711545088336115700,18.76511572265625,15.116657257080078,6.145366668701172,0.89581298828125
1711545088354998300,18.783998291015624,13.891531944274902,3.4438700675964355,-0.44416770339012146
1711545088373880600,18.802880615234375,10.268798828125,1.9507486820220947,-1.6836497783660889
1711545088392763100,18.82176318359375,5.96171760559082,2.1158533096313477,-2.23639178276062
1711545088411645700,18.840645751953126,3.535395383834839,3.606581926345825,-1.750648856163025
1711545088430528300,18.8595283203125,2.719442844390869,5.149952411651611,-0.2599203586578369
1711545088449410600,18.87841064453125,3.2410783767700195,5.638088226318359,0.4531407952308655
1711545088468293000,18.897293212890624,5.346762180328369,4.941776752471924,-0.5350949764251709
1711545088487175700,18.91617578125,6.964310169219971,4.11625337600708,-1.913360834121704
1711545088506058000,18.93505810546875,8.35453987121582,3.9487555027008057,-2.3799612522125244
1711545088524940500,18.9539404296875,9.448060035705566,3.912863254547119,-1.5687943696975708
1711545088543823000,18.972822998046876,9.90987491607666,4.281357765197754,-0.2958126962184906
1711545088562705400,18.991705322265624,9.10110092163086,4.917848587036133,0.7378866672515869
1711545088581588000,19.010587890625,7.4979095458984375,5.4418768882751465,1.4581263065338135
1711545088600470500,19.029470458984374,6.088537216186523,5.709873199462891,1.9103697538375854
1711545088619352800,19.048352783203125,5.191228866577148,5.8821563720703125,1.7572290897369385
1711545088638235400,19.0672353515625,4.786841869354248,5.9922261238098145,1.0441679954528809
1711545088657118000,19.086117919921875,5.408975601196289,5.762515068054199,0.271286278963089
1711545088676000300,19.105000244140626,7.411767959594727,5.336592674255371,-0.2718844711780548
1711545088694882800,19.1238828125,9.5533447265625,4.956133842468262,-0.2551347017288208
1711545088713765400,19.142765380859377,10.28315544128418,4.893920421600342,0.03918246924877167
1711545088732648000,19.16164794921875,8.825926780700684,5.353342533111572,0.08225327730178833
1711545088751530200,19.1805302734375,7.438089370727539,5.853442192077637,-0.3436691462993622
1711545088770412800,19.199412841796875,7.0408806800842285,5.84865665435791,-0.5015954375267029
1711545088789295000,19.218295166015626,7.670193195343018,5.537590026855469,-0.8461619019508362
1711545088808177700,19.237177734375,8.13679313659668,5.271986484527588,-1.3462618589401245
1711545088827060200,19.256060302734376,8.35453987121582,5.248058319091797,-1.7602201700210571
1711545088845942800,19.27494287109375,8.792427062988281,5.439484119415283,-1.7051852941513062
1711545088864825000,19.2938251953125,9.462417602539062,5.626124382019043,-1.0615159273147583
1711545088883707600,19.312707763671874,9.91705322265625,5.7409796714782715,-0.5662016868591309
1711545088902590200,19.331590087890625,9.780662536621094,5.705087184906006,-0.2072782665491104
1711545088921472500,19.350472412109376,9.067601203918457,5.578267574310303,-0.02063809521496296
1711545088940355000,19.36935498046875,8.26121997833252,5.633302688598633,-0.30538398027420044
1711545088959237600,19.388237548828126,7.744370460510254,5.7720866203308105,-0.597308337688446
1711545088978120000,19.407119873046874,7.643871784210205,5.886941909790039,-0.9658030271530151
1711545088997002500,19.42600244140625,7.950153350830078,6.052046775817871,-1.0710872411727905
1711545089015884800,19.444884765625,8.242077827453613,6.183651924133301,-0.8102695941925049
1711545089034767400,19.463767333984375,8.120043754577637,6.238687038421631,-0.8653044700622559
1711545089053650000,19.48264990234375,9.031708717346191,5.863013744354248,-1.176371455192566
1711545089072532500,19.501532470703125,11.257034301757812,5.415555953979492,-1.425225019454956
1711545089091414800,19.520414794921876,12.90329647064209,5.19541597366333,-0.6475576162338257
1711545089110297300,19.53929736328125,11.915060043334961,5.520840167999268,0.8527421951293945
1711545089129179600,19.5581796875,10.029516220092773,5.805585861206055,1.8505492210388184
1711545089148062200,19.577062255859374,8.682356834411621,5.346164226531982,2.4320051670074463
1711545089166944800,19.59594482421875,7.371089935302734,4.745565414428711,2.24775767326355
1711545089185827000,19.6148271484375,6.533602237701416,4.276572227478027,1.6495521068572998
1711545089204709600,19.633709716796876,5.909075736999512,3.9152560234069824,1.3504493236541748
1711545089223592200,19.65259228515625,5.375475883483887,4.063611030578613,0.9939187169075012
1711545089242474500,19.671474609375,5.531009674072266,4.771886348724365,0.7378866672515869
1711545089261357000,19.690357177734374,6.480959892272949,5.551946640014648,1.0058828592300415
1711545089280239600,19.709239501953125,7.689335346221924,5.97308349609375,1.0298110246658325
1711545089299122000,19.728121826171876,8.897710800170898,6.176473617553711,0.7594220638275146
1711545089318004500,19.74700439453125,9.885947227478027,6.030511379241943,0.2521436810493469
1711545089336886800,19.76588671875,10.201799392700195,5.657230854034424,-0.19770696759223938
1711545089355769300,19.784769287109373,9.649057388305664,5.365306377410889,-0.21206390857696533
1711545089374652000,19.80365185546875,8.675178527832031,5.1427741050720215,-0.20967108011245728
1711545089393534200,19.8225341796875,7.971688747406006,5.090131759643555,-0.43220359086990356
1711545089412416800,19.841416748046875,7.58644437789917,5.164309501647949,-0.30538398027420044
1711545089431299300,19.86029931640625,7.311269760131836,5.3246283531188965,0.046360939741134644
1711545089450181600,19.879181640625,7.406982421875,5.523232936859131,0.3047857880592346
1711545089469064200,19.898064208984376,7.402196884155273,5.908477306365967,0.6349952816963196
1711545089487946800,19.91694677734375,7.256234645843506,6.442076683044434,0.9747761487960815
1711545089506829000,19.9358291015625,7.203592777252197,6.741179466247559,1.474876046180725
1711545089525711600,19.954711669921874,7.92861795425415,6.403791427612305,1.7883358001708984
1711545089544594000,19.973593994140625,8.81396198272705,5.9539408683776855,1.5945172309875488
1711545089563476500,19.9924765625,8.672785758972168,5.707480430603027,1.1925230026245117
1711545089582359000,20.011359130859375,7.6630144119262695,5.843871116638184,0.7977072596549988
1711545089601241300,20.030241455078126,7.000202655792236,6.114260196685791,0.4100699722766876
1711545089620124000,20.0491240234375,6.62213659286499,6.119045734405518,0.1779661774635315
1711545089639006200,20.068006103515625,6.361319065093994,6.0640106201171875,-0.18574285507202148
1711545089657888800,20.086888671875,6.437889099121094,6.013761520385742,-0.5039882659912109
1711545089676771300,20.105771240234375,7.143772125244141,5.824728488922119,-0.9251250624656677
1711545089695653600,20.124653564453126,7.770691394805908,5.530411243438721,-1.1955139636993408
1711545089714536200,20.1435361328125,8.292326927185059,5.19541597366333,-1.3103694915771484
1711545089733418500,20.16241845703125,8.804390907287598,5.066203594207764,-0.9897312521934509
1711545089752301000,20.181301025390624,8.993423461914062,5.427519798278809,-0.25274190306663513
1711545089771183600,20.20018359375,8.58185863494873,6.075974941253662,0.48903313279151917
1711545089790066000,20.21906591796875,7.847261905670166,6.580860614776611,1.0513464212417603
1711545089808948500,20.237948486328126,7.406982421875,6.805785655975342,1.3432707786560059
1711545089827830800,20.256830810546877,7.134200572967529,6.908677101135254,1.4270195960998535
1711545089846713300,20.27571337890625,6.5288166999816895,7.097710132598877,1.2164511680603027
1711545089865596000,20.294595947265623,5.832505226135254,7.2436723709106445,0.9053842425346375
1711545089884478200,20.313478271484374,5.96171760559082,7.061817646026611,0.6804589629173279
1711545089903360800,20.33236083984375,7.1270222663879395,6.513861656188965,0.1947159469127655
1711545089922243000,20.3512431640625,7.950153350830078,5.791228771209717,-0.33409786224365234
1711545089941125600,20.370125732421876,7.761120319366455,5.482554912567139,-0.9394819736480713
1711545089960008200,20.38900830078125,7.366304397583008,5.475376605987549,-1.3869398832321167
1711545089978890500,20.407890380859374,7.112665176391602,5.683551788330078,-1.4850455522537231
1711545089997773000,20.42677294921875,7.318448066711426,5.98026180267334,-1.3079767227172852
1711545090016655400,20.4456552734375,7.871190071105957,6.174080848693848,-0.7983054518699646
1711545090035538000,20.464537841796876,8.256434440612793,6.365506649017334,-0.2838485836982727
1711545090054420500,20.48342041015625,8.280363082885742,6.523432731628418,0.05353940650820732
1711545090073302800,20.502302734375,7.904689788818359,6.549753665924072,0.3239283561706543
1711545090092185300,20.521185302734374,7.313662528991699,6.559325218200684,0.5464608669281006
1711545090111067600,20.540067626953125,7.0169525146484375,6.576074600219727,0.7378866672515869
1711545090129950200,20.5589501953125,7.170093059539795,6.511468410491943,0.8359923958778381
1711545090148832800,20.577832763671875,7.2921271324157715,6.320042610168457,0.7785646915435791
1711545090167715000,20.596715087890626,7.050451755523682,6.217151641845703,0.6780661344528198
1711545090186597600,20.61559765625,6.957131862640381,6.303293228149414,0.7259225845336914
1711545090205480000,20.63447998046875,7.189235687255859,6.387042045593262,0.8192426562309265
1711545090224362500,20.653362548828124,7.562515735626221,6.312864303588867,0.8288139700889587
1711545090243244800,20.672244873046875,7.734799385070801,6.219544410705566,0.6349952816963196
1711545090262127400,20.69112744140625,7.674978733062744,6.162116527557373,0.4746761918067932
1711545090281010000,20.710010009765625,7.548159122467041,6.1573309898376465,0.359820693731308
1711545090299892200,20.728892333984376,7.540980339050293,6.111867427825928,0.247358039021492
1711545090318774800,20.74777490234375,7.507481098175049,6.054439544677734,0.20189441740512848
1711545090337657000,20.766656982421875,7.5912299156188965,6.059225082397461,0.1779661774635315
1711545090356539600,20.78553955078125,7.727620601654053,6.171687602996826,0.30239295959472656
1711545090375422000,20.804421875,7.976474285125732,6.269793510437012,0.48424747586250305
1711545090394304500,20.823304443359376,8.048258781433105,6.267400741577148,0.6732804775238037
1711545090413186800,20.842186767578124,7.854440212249756,6.310471534729004,0.8288139700889587
1711545090432069400,20.8610693359375,7.545766353607178,6.2913289070129395,0.773779034614563
1711545090450952000,20.879951904296874,7.447660446166992,6.214758396148682,0.7187440991401672
1711545090469834200,20.898834228515625,7.47637414932251,6.224329948425293,0.7833502888679504
1711545090488716800,20.917716796875,7.4261250495910645,6.162116527557373,0.7067800164222717
1711545090507599000,20.93659912109375,7.232306480407715,6.0711894035339355,0.618245542049408
1711545090526481700,20.955481689453126,7.196413993835449,6.056832313537598,0.6469594240188599
1711545090545364000,20.974364013671874,7.335197925567627,6.0711894035339355,0.7570292353630066
1711545090564246500,20.99324658203125,7.4811601638793945,6.066403388977051,0.7450651526451111
1711545090583129000,21.012129150390624,7.519444942474365,5.925227165222168,0.618245542049408
1711545090602011400,21.031011474609375,7.682157039642334,5.752943992614746,0.14446666836738586
1711545090620894000,21.04989404296875,7.820940971374512,5.642873764038086,-0.027816563844680786
1711545090639776300,21.0687763671875,7.727620601654053,5.731408596038818,0.07507480680942535
1711545090658658800,21.087658935546877,7.631907939910889,5.913262844085693,0.20907287299633026
1711545090677541000,21.106541015625,7.483552932739258,6.02811861038208,0.3239283561706543
1711545090696423700,21.125423583984375,7.380661487579346,6.0640106201171875,0.31914272904396057
1711545090715306000,21.144305908203126,7.366304397583008,6.061617851257324,0.33110684156417847
1711545090734188500,21.1631884765625,7.392625331878662,6.004190444946289,0.3287140130996704
1711545090753070800,21.18207080078125,7.4572319984436035,5.958726406097412,0.35503506660461426
1711545090771953400,21.200953369140624,7.727620601654053,5.951548099517822,0.42681974172592163
1711545090790836000,21.2198359375,7.9621171951293945,5.915655612945557,0.498604416847229
1711545090809718300,21.23871826171875,8.213363647460938,5.812764644622803,0.589531660079956
1711545090828600800,21.257600830078125,8.409575462341309,5.638088226318359,0.8455637097358704
1711545090847483100,21.276483154296876,8.337790489196777,5.566303730010986,1.0633105039596558
1711545090866365700,21.29536572265625,8.227720260620117,5.554339408874512,1.2212368249893188
1711545090885248000,21.314248046875,7.794619560241699,5.587839126586914,1.474876046180725
1711545090904130600,21.333130615234374,7.404589653015137,5.535196781158447,1.651944875717163
1711545090923012900,21.352012939453125,7.4811601638793945,5.362913608551025,1.6926229000091553
1711545090941895400,21.3708955078125,7.679764270782471,5.279164791107178,1.8098711967468262
1711545090960777700,21.38977783203125,7.411767959594727,5.463412284851074,1.9701902866363525
1711545090979660300,21.408660400390627,6.897311210632324,5.8749775886535645,2.168794631958008
1711545090998542600,21.42754248046875,7.093522548675537,6.212365627288818,2.5755743980407715
1711545091017425200,21.446425048828125,8.373682975769043,6.188437461853027,3.027817964553833
1711545091036307500,21.465307373046876,9.58205795288086,5.886941909790039,3.0780673027038574
1711545091055190000,21.48418994140625,10.053443908691406,5.468197822570801,2.5995028018951416
1711545091074072600,21.503072509765627,9.754341125488281,5.030311584472656,2.108973979949951
1711545091092955000,21.521954833984374,9.270991325378418,4.774279594421387,1.7548363208770752
1711545091111837400,21.54083740234375,8.857032775878906,4.83888578414917,1.7261223793029785
1711545091130719700,21.5597197265625,8.321041107177734,5.161916732788086,1.922333836555481
1711545091149602300,21.578602294921875,8.043473243713379,5.44426965713501,2.1807587146759033
1711545091168484600,21.597484619140626,8.14636516571045,5.482554912567139,2.312364101409912
1711545091187367200,21.6163671875,8.213363647460938,5.25045108795166,2.305185556411743
1711545091206249500,21.63524951171875,8.179863929748535,4.972883701324463,2.2549362182617188
1711545091225132000,21.654132080078124,7.878368377685547,4.903491973876953,2.295614242553711
1711545091244014300,21.673014404296875,7.674978733062744,5.0255255699157715,2.5133609771728516
1711545091262897000,21.69189697265625,7.801798343658447,5.135595798492432,2.824428081512451
1711545091281779200,21.710779296875,7.7180495262146,5.240880012512207,3.137887716293335
1711545091300661800,21.729661865234377,7.64865779876709,5.1906304359436035,3.310171127319336
1711545091319544000,21.7485439453125,7.495516777038574,4.913063049316406,3.264707326889038
1711545091338426600,21.767426513671875,7.172485828399658,4.855635166168213,2.927319288253784
1711545091357309000,21.786308837890626,7.138986587524414,5.200201988220215,2.7167510986328125
1711545091376191500,21.80519140625,7.454838752746582,5.78644323348999,2.9368906021118164
1711545091395073800,21.82407373046875,8.163114547729492,5.96590518951416,3.075674295425415
1711545091413956400,21.842956298828124,9.002995491027832,5.729015827178955,2.77657151222229
1711545091432838700,21.861838623046875,8.84506893157959,5.652445316314697,2.570788860321045
1711545091451721200,21.88072119140625,7.892725467681885,5.843871116638184,2.2597219944000244
1711545091470603500,21.899603515625,7.402196884155273,5.815157413482666,1.953440546989441
1711545091489486000,21.918486083984376,8.055437088012695,5.391627788543701,1.4724832773208618
1711545091508368400,21.937368408203124,9.046066284179688,4.688137531280518,0.862313449382782
1711545091527251000,21.9562509765625,9.120243072509766,4.147359848022461,0.3239283561706543
1711545091546133200,21.97513330078125,8.237292289733887,4.161716938018799,-0.3484548032283783
1711545091565015800,21.994015869140625,7.371089935302734,4.700101852416992,-1.0615159273147583
1711545091583898000,22.012898193359376,7.430910587310791,5.274379253387451,-1.090229868888855
1711545091602780700,22.03178076171875,8.359326362609863,5.666802406311035,-0.5638088583946228
1711545091621663000,22.0506630859375,9.5533447265625,6.018547058105469,-0.13310076296329498
1711545091640545500,22.069545654296874,10.357333183288574,6.22193717956543,0.18753747642040253
1711545091659427800,22.088427734375,10.26640510559082,6.032904148101807,0.03678964823484421
1711545091678310400,22.107310302734376,9.943374633789062,5.429912567138672,-0.7049853801727295
1711545091697192700,22.126192626953124,10.043872833251953,4.704887390136719,-1.2577273845672607
1711545091716075300,22.1450751953125,9.550951957702637,4.226323127746582,-1.573580026626587
1711545091734957600,22.16395751953125,7.9621171951293945,4.2000017166137695,-1.571187138557434
1711545091753840000,22.182840087890625,6.179464340209961,4.420141696929932,-1.0016953945159912
1711545091772722400,22.201722412109376,4.6408796310424805,4.903491973876953,-0.3484548032283783
1711545091791605000,22.22060498046875,3.875176191329956,5.470590591430664,-0.06131608039140701
1711545091810487300,22.2394873046875,3.757927894592285,5.453841209411621,-0.04217349737882614
1711545091829369900,22.258369873046874,3.8368911743164062,5.173880577087402,-0.4082753658294678
1711545091848252200,22.277252197265625,4.8777689933776855,4.858027935028076,-1.35822594165802
1711545091867134500,22.296134521484376,6.22492790222168,4.826921463012695,-1.9588243961334229
1711545091886017000,22.31501708984375,7.514659404754639,5.128417015075684,-2.1909282207489014
1711545091904899300,22.3338994140625,8.414361000061035,5.4418768882751465,-2.1071794033050537
1711545091923782000,22.352781982421874,8.964710235595703,5.879763603210449,-1.7937196493148804
1711545091942664400,22.37166455078125,9.696913719177246,6.418148517608643,-1.3486546277999878
1711545091961546800,22.390546630859376,10.488938331604004,6.791429042816162,-0.8030911087989807
1711545091980429000,22.409428955078123,10.797612190246582,6.853642463684082,-0.4585246443748474
1711545091999311600,22.4283115234375,10.307083129882812,6.762714862823486,-0.22163519263267517
1711545092018194000,22.44719384765625,9.361918449401855,6.6454668045043945,-0.20967108011245728
1711545092037076500,22.466076416015625,8.191828727722168,6.50907564163208,-0.3963112533092499
1711545092055958800,22.484958740234376,7.074379920959473,6.530611038208008,-0.6236293911933899
1711545092074841300,22.50384130859375,6.212964057922363,6.616752624511719,-0.6667001843452454
1711545092093723600,22.5227236328125,5.7750773429870605,6.657430648803711,-0.7671987414360046
1711545092112606200,22.541606201171874,6.138786315917969,6.693323135375977,-1.200299620628357
1711545092131488500,22.560488525390625,7.670193195343018,6.75792932510376,-1.7099708318710327
1711545092150371000,22.57937109375,9.486345291137695,6.985247611999512,-1.8511474132537842
1711545092169253400,22.59825341796875,11.158928871154785,7.34895658493042,-1.6310077905654907
1711545092188135700,22.6171357421875,10.551151275634766,7.88494873046875,-0.9634101986885071
1711545092207018200,22.636018310546874,10.194621086120605,8.21276569366455,-0.539880633354187
1711545092225900500,22.654900634765625,11.228320121765137,8.088338851928711,-0.0014955141814425588
1711545092244783000,22.673783203125,12.101700782775879,7.657630443572998,0.6278168559074402
1711545092263665400,22.69266552734375,12.747762680053711,6.485147476196289,0.9197412133216858
1711545092282548000,22.7115478515625,12.853046417236328,4.743172645568848,0.8288139700889587
1711545092301430300,22.73043017578125,11.343175888061523,3.3672995567321777,0.4292125701904297
1711545092320312800,22.749312744140624,8.790034294128418,2.5298118591308594,0.19232311844825745
1711545092339195100,22.768195068359375,6.076572895050049,2.079961061477661,0.4794618487358093
1711545092358077400,22.787077392578126,4.528416633605957,1.9794625043869019,1.202094316482544
1711545092376960000,22.8059599609375,3.9948174953460693,2.2881367206573486,1.7548363208770752
1711545092395842300,22.82484228515625,3.377469062805176,3.477369546890259,1.20687997341156
1711545092414724900,22.843724853515624,2.4059832096099854,5.614160060882568,-0.22642084956169128
1711545092433607200,22.862607177734375,2.8223342895507812,7.284350395202637,-0.508773922920227
1711545092452489700,22.88148974609375,5.602794170379639,7.27956485748291,0.41485562920570374
1711545092471372000,22.9003720703125,8.912068367004395,6.516254425048828,1.0944172143936157
1711545092490254600,22.919254638671877,11.154142379760742,5.597410202026367,0.9628120064735413
1711545092509137000,22.938136962890624,11.175678253173828,4.71445894241333,0.44835513830184937
1711545092528019500,22.95701953125,8.4502534866333,4.288536548614502,-0.18574285507202148
1711545092546901800,22.97590185546875,6.14835786819458,4.444069862365723,-0.32931220531463623
1711545092565784000,22.9947841796875,4.875376224517822,4.53499698638916,-0.22881366312503815
1711545092584666600,23.01366650390625,4.394418716430664,4.712066173553467,-0.20488543808460236
1711545092603549000,23.032548828125,4.124029636383057,4.968098163604736,-0.3819543123245239
1711545092622431500,23.051431396484375,4.253242015838623,5.264808177947998,-0.5518447160720825
1711545092641313800,23.070313720703126,5.160121917724609,5.523232936859131,-0.5614160299301147
1711545092660196400,23.0891962890625,7.124629497528076,5.793622016906738,-0.05174478888511658
1711545092679078700,23.10807861328125,9.148957252502441,6.10468864440918,0.5392823815345764
1711545092697961000,23.1269609375,10.584650993347168,6.451648235321045,1.2236297130584717
1711545092716843500,23.145843505859375,10.680363655090332,6.544968128204346,1.6208382844924927
1711545092735725800,23.164725830078126,9.775876998901367,6.276971817016602,1.3025928735733032
1711545092754608400,23.1836083984375,9.247062683105469,5.91804838180542,0.7187440991401672
1711545092773490700,23.20249072265625,10.163514137268066,5.750551223754883,0.44835513830184937
1711545092792373200,23.221373291015624,11.374282836914062,5.922834396362305,0.07507480680942535
1711545092811255600,23.240255615234375,10.424331665039062,7.427919864654541,-0.2958126962184906
1711545092830137900,23.259137939453126,9.038887977600098,9.55753231048584,-0.33888351917266846
1711545092849020400,23.2780205078125,8.900103569030762,10.617551803588867,1.7189439535140991
1711545092867902700,23.29690283203125,11.003395080566406,10.289735794067383,3.4010982513427734
1711545092886785300,23.315785400390624,14.3389892578125,8.595617294311523,3.1115667819976807
1711545092905667600,23.33466748046875,16.293926239013672,5.403591632843018,1.0824531316757202
1711545092924550000,23.3535498046875,14.34856128692627,2.441277265548706,-1.1380863189697266
1711545092943432400,23.372432373046873,9.273384094238281,1.5104693174362183,-2.5307090282440186
1711545092962314800,23.391314697265624,4.5308098793029785,2.245065927505493,-2.3488545417785645
1711545092981197300,23.410197265625,1.8436698913574219,3.541975736618042,-1.3773685693740845
1711545093000079600,23.42907958984375,1.2335001230239868,4.350749969482422,-1.0304092168807983
1711545093018962000,23.4479619140625,2.6045875549316406,3.7501513957977295,-1.70039963722229
1711545093037844500,23.466844482421877,4.5308098793029785,2.929413080215454,-2.8992037773132324
1711545093056726800,23.485726806640624,6.519245147705078,2.9078776836395264,-3.8587255477905273
1711545093075609300,23.504609375,7.931010723114014,3.329014539718628,-3.2078778743743896
1711545093094491600,23.52349169921875,8.443074226379395,4.0420756340026855,-1.535294771194458
1711545093113374000,23.5423740234375,8.617751121520996,4.879563808441162,0.05832505226135254
1711545093132256500,23.561256591796877,8.593822479248047,5.571089267730713,1.383948802947998
1711545093151138800,23.580138916015624,7.4261250495910645,5.98026180267334,2.130509376525879
1711545093170021400,23.599021484375,5.822933673858643,6.0400824546813965,1.8337994813919067
1711545093188903700,23.617903564453126,4.604987144470215,5.628517150878906,1.1733803749084473
1711545093207786000,23.636785888671874,3.9948174953460693,5.109274387359619,0.027218356728553772
1711545093226668500,23.65566845703125,4.518845558166504,4.719244480133057,-1.4730814695358276
1711545093245550800,23.67455078125,6.043073654174805,4.898705959320068,-1.8008981943130493
1711545093264433400,23.693433349609375,7.52423095703125,5.544768333435059,-0.9873384237289429
1711545093283315700,23.712315673828126,8.763712882995605,6.516254425048828,0.022432712838053703
1711545093302198000,23.731197998046873,10.326226234436035,6.786643028259277,0.5656034350395203
1711545093321080600,23.75008056640625,11.146964073181152,6.6215386390686035,0.481854647397995
1711545093339963000,23.768962890625,9.835697174072266,6.568896293640137,-0.2766701281070709
1711545093358845400,23.787845458984375,8.199007034301758,7.047461032867432,-1.0974082946777344
1711545093377727700,23.806727783203126,8.057829856872559,7.643273830413818,-1.597508192062378
1711545093396610000,23.825610107421873,9.395418167114258,7.882555961608887,-1.6405789852142334
1711545093415492600,23.84449267578125,11.431710243225098,7.916055679321289,-1.3606188297271729
1711545093434375000,23.863375,11.912667274475098,7.9591264724731445,-0.6738786697387695
1711545093453257500,23.882257568359375,11.635100364685059,7.581060409545898,-0.054137613624334335
1711545093472139800,23.901139892578126,11.187642097473145,7.363313674926758,0.46749773621559143
1711545093491022000,23.92002197265625,10.661221504211426,7.301100254058838,1.013061285018921
1711545093509904600,23.938904541015624,11.015358924865723,6.367899417877197,1.4557334184646606
1711545093528787000,23.957786865234375,11.173285484313965,4.719244480133057,1.5825530290603638
1711545093547669500,23.97666943359375,9.7998046875,3.252444267272949,1.4365909099578857
1711545093566551800,23.9955517578125,7.146164894104004,2.4580271244049072,1.6351951360702515
1711545093585434000,24.01443408203125,5.066802024841309,1.9052850008010864,2.0635104179382324
1711545093604316700,24.033316650390624,4.064209461212158,1.7186448574066162,2.680858612060547
1711545093623199000,24.052198974609375,3.2482566833496094,2.3407788276672363,2.893819808959961
1711545093642081300,24.071081298828126,2.307877540588379,4.4584269523620605,1.1374880075454712
1711545093660963800,24.0899638671875,2.7361927032470703,6.786643028259277,-0.7911269664764404
1711545093679846100,24.10884619140625,5.468796253204346,7.3537421226501465,-0.6667001843452454
1711545093698728400,24.127728515625,10.204192161560059,6.5712890625,0.8982058167457581
1711545093717611000,24.146611083984375,13.72642707824707,5.470590591430664,1.4581263065338135
1711545093736493300,24.165493408203126,13.747962951660156,4.886742115020752,0.9364909529685974
1711545093755375900,24.1843759765625,9.601201057434082,4.673780918121338,-0.10677970945835114
1711545093774258200,24.203258056640625,6.244070529937744,4.645066738128662,-0.5303093194961548
1711545093793140500,24.222140380859376,4.147958278656006,4.793421745300293,-0.5183451771736145
1711545093812023000,24.24102294921875,3.1549365520477295,4.903491973876953,-0.4537389874458313
1711545093830905300,24.2599052734375,3.1214370727539062,4.90109920501709,-0.5685944557189941
1711545093849787600,24.27878759765625,4.351347923278809,4.764708042144775,-0.7049853801727295
1711545093868670200,24.297670166015624,6.200999736785889,5.0255255699157715,-0.39870408177375793
1711545093887552500,24.316552490234375,7.7802629470825195,5.72422981262207,0.6804589629173279
1711545093906435000,24.33543505859375,9.10827922821045,6.375077724456787,1.9462621212005615
1711545093925317400,24.3543173828125,9.620343208312988,6.652645111083984,2.3650059700012207
1711545093944199700,24.37319970703125,9.060422897338867,6.410970211029053,1.8936200141906738
1711545093963082200,24.392082275390624,8.823533058166504,6.164509296417236,1.477268934249878
1711545093981964500,24.410964599609375,9.610772132873535,6.245865345001221,1.2379865646362305
1711545094000846800,24.429846923828126,10.87418270111084,6.195616245269775,1.1422736644744873
1711545094019729400,24.4487294921875,11.335997581481934,5.994618892669678,0.7881359457969666
